center,surround,correct,thisN,thisTrialN,thisRepN,key_resp_3.keys,key_resp_3.corr,key_resp_3.rt,key_resp_3.duration,opacity,key_resp_4.keys,key_resp_4.corr,key_resp_4.rt,key_resp_4.duration,type,surr_type,surr_opacity,resp.keys,resp.rt,resp.duration,practice_no_time.thisRepN,practice_no_time.thisTrialN,practice_no_time.thisN,practice_no_time.thisIndex,practice_timed.thisRepN,practice_timed.thisTrialN,practice_timed.thisN,practice_timed.thisIndex,trials.thisRepN,trials.thisTrialN,trials.thisN,trials.thisIndex,thisRow.t,notes,instr.started,text_5.started,key_resp_2.started,instr.stopped,key_resp_2.keys,key_resp_2.rt,key_resp_2.duration,instr2.started,text_6.started,key_resp_6.started,instr2.stopped,key_resp_6.keys,key_resp_6.rt,key_resp_6.duration,practice_trial.started,key_resp_3.started,surround_practice.started,center_practice.started,text_11.started,surround_practice.stopped,center_practice.stopped,practice_trial.stopped,practice_no_time.key_resp_3.keys,practice_no_time.key_resp_3.corr,practice_no_time.key_resp_3.rt,practice_no_time.key_resp_3.duration,practice_feedback.started,text_7.started,practice_feedback.stopped,text_7.stopped,instr3.started,text_8.started,key_resp_5.started,instr3.stopped,key_resp_5.keys,key_resp_5.rt,key_resp_5.duration,practice_trial_timed.started,key_resp_4.started,surround_practice_2.started,center_practice_2.started,surround_practice_2.stopped,center_practice_2.stopped,text_12.started,practice_trial_timed.stopped,practice_timed.key_resp_4.keys,practice_timed.key_resp_4.corr,practice_timed.key_resp_4.rt,practice_timed.key_resp_4.duration,start_instr.started,text_13.started,key_resp_8.started,start_instr.stopped,key_resp_8.keys,key_resp_8.rt,key_resp_8.duration,trial.started,resp.started,surround_grating.started,center_grating.started,text_4.started,surround_grating.stopped,center_grating.stopped,trial.stopped,trials.resp.keys,trials.resp.rt,trials.resp.duration,end.started,text_14.started,key_resp.started,end.stopped,key_resp.keys,key_resp.rt,key_resp.duration,participant,session,date,expName,psychopyVersion,frameRate,expStart
,,,,,,,,,,,,,,,,,,,,,,,,,,,,,,,,,,,0.013378083938732743,0.020420667016878724,0.020420667016878724,9.533737333957106,space,9.507326208986342,None,,,,,,,,,,,,,,,,,,,,,,,,,,,,,,,,,,,,,,,,,,,,,,,,,,,,,,,,,,,,,,,,,,,,191038,001,2025-08-16_11h23.38.929,tilt_mocs,2024.2.4,None,2025-08-16 11h23.45.641379 -0700
,,,,,,,,,,,,,,,,,,,,,,,,,,,,,,,,,,,,,,,,,,9.533822166966274,9.549927917,9.549927917,9.883052374934778,space,0.32969970896374434,None,,,,,,,,,,,,,,,,,,,,,,,,,,,,,,,,,,,,,,,,,,,,,,,,,,,,,,,,,,,,,191038,001,2025-08-16_11h23.38.929,tilt_mocs,2024.2.4,None,2025-08-16 11h23.45.641379 -0700
30,0,right,0,0,0,right,1,2.2506100409664214,None,,,,,,,,,,,,0,0,0,0,,,,,,,,,9.901497167,,,,,,,,,,,,,,,,9.894426834,9.901497167,10.385649667005055,10.385649667005055,11.373419667012058,11.382237917045131,11.382237917045131,12.154017583932728,right,1,2.2506100409664214,None,12.158500291989185,12.21090062498115,13.665756750036962,,,,,,,,,,,,,,,,,,,,,,,,,,,,,,,,,,,,,,,,,,,,,,191038,001,2025-08-16_11h23.38.929,tilt_mocs,2024.2.4,None,2025-08-16 11h23.45.641379 -0700
-30,0,left,1,1,0,left,1,0.8952502920292318,None,,,,,,,,,,,,0,1,1,1,,,,,,,,,13.671856374945492,,,,,,,,,,,,,,,,13.66680287499912,13.671856374945492,14.14862271,14.14862271,,,,14.574081041966565,left,1,0.8952502920292318,None,14.57421595894266,14.58169037499465,16.06651520903688,16.07251750002615,,,,,,,,,,,,,,,,,,,,,,,,,,,,,,,,,,,,,,,,,,,,,191038,001,2025-08-16_11h23.38.929,tilt_mocs,2024.2.4,None,2025-08-16 11h23.45.641379 -0700
30,60,right,2,2,0,right,1,0.8805781250121072,None,,,,,,,,,,,,0,2,2,2,,,,,,,,,16.07251750002615,,,,,,,,,,,,,,,,16.06751974998042,16.07251750002615,16.57424662495032,16.57424662495032,,,,16.957082250039093,right,1,0.8805781250121072,None,16.95722666697111,16.965056249988265,18.44986924994737,18.455480459029786,,,,,,,,,,,,,,,,,,,,,,,,,,,,,,,,,,,,,,,,,,,,,191038,001,2025-08-16_11h23.38.929,tilt_mocs,2024.2.4,None,2025-08-16 11h23.45.641379 -0700
-30,-60,left,3,3,0,left,1,1.0031092920107767,None,,,,,,,,,,,,0,3,3,3,,,,,,,,,18.455480459029786,,,,,,,,,,,,,,,,18.451053875032812,18.455480459029786,18.956741166999564,18.956741166999564,,,,19.467658416950144,left,1,1.0031092920107767,None,19.467873999965377,19.475465083960444,20.966455291956663,20.973530916962773,,,,,,,,,,,,,,,,,,,,,,,,,,,,,,,,,,,,,,,,,,,,,191038,001,2025-08-16_11h23.38.929,tilt_mocs,2024.2.4,None,2025-08-16 11h23.45.641379 -0700
,,,,,,,,,,,,,,,,,,,,,,,,,,,,,,,,,,,,,,,,,,,,,,,,,,,,,,,,,,,,,,,,,20.96660046,20.973530916962773,20.973530916962773,22.117645249934867,space,1.137892875005491,None,,,,,,,,,,,,,,,,,,,,,,,,,,,,,,,,,,,,,,191038,001,2025-08-16_11h23.38.929,tilt_mocs,2024.2.4,None,2025-08-16 11h23.45.641379 -0700
-30,-60,left,0,0,0,,,,,100,left,1,1.0837743340525776,None,,,,,,,,,,,0,0,0,0,,,,,22.137989833950996,,,,,,,,,,,,,,,,,,,,,,,,,,,,23.22454441699665,23.231496874941513,24.716136208968237,24.721369334030896,,,,,,,,22.126126167015173,22.137989833950996,22.61903900001198,22.61903900001198,22.689827000023797,22.689827000023797,22.689827000023797,23.224445250001736,left,1,1.0837743340525776,None,,,,,,,,,,,,,,,,,,,,,,,,,,191038,001,2025-08-16_11h23.38.929,tilt_mocs,2024.2.4,None,2025-08-16 11h23.45.641379 -0700
-30,0,left,1,1,0,,,,,100,left,1,0.8865066251019016,None,,,,,,,,,,,0,1,1,1,,,,,24.721369334030896,,,,,,,,,,,,,,,,,,,,,,,,,,,,25.617519291932695,25.625112334033474,27.11584683402907,27.120290084043518,,,,,,,,24.716683084028773,24.721369334030896,25.22253658401314,25.22253658401314,25.298874041996896,25.298874041996896,25.303072834038176,25.617359958938323,left,1,0.8865066251019016,None,,,,,,,,,,,,,,,,,,,,,,,,,,191038,001,2025-08-16_11h23.38.929,tilt_mocs,2024.2.4,None,2025-08-16 11h23.45.641379 -0700
30,60,right,2,2,0,,,,,100,right,1,0.7844232500065118,None,,,,,,,,,,,0,2,2,2,,,,,27.120290084043518,,,,,,,,,,,,,,,,,,,,,,,,,,,,27.90629429195542,27.914123166934587,29.399884999962524,29.405309166992083,,,,,,,,27.116446709027514,27.120290084043518,27.614193208981305,27.614193208981305,27.68905362498481,27.68905362498481,27.68905362498481,27.906203584047034,right,1,0.7844232500065118,None,,,,,,,,,,,,,,,,,,,,,,,,,,191038,001,2025-08-16_11h23.38.929,tilt_mocs,2024.2.4,None,2025-08-16 11h23.45.641379 -0700
30,0,right,3,3,0,,,,,100,right,1,0.848901667,None,,,,,,,,,,,0,3,3,3,,,,,29.405309166992083,,,,,,,,,,,,,,,,,,,,,,,,,,,,30.255727792042308,30.264164292020723,31.748473959043622,31.75438912503887,,,,,,,,29.400412749964744,29.405309166992083,29.90587316697929,29.90587316697929,29.982470292015933,29.982470292015933,29.982470292015933,30.255626791971736,right,1,0.848901667,None,,,,,,,,,,,,,,,,,,,,,,,,,,191038,001,2025-08-16_11h23.38.929,tilt_mocs,2024.2.4,None,2025-08-16 11h23.45.641379 -0700
-30,69,left,4,4,0,,,,,0,left,1,1.8585730829508975,None,,,,,,,,,,,0,4,4,4,,,,,31.75438912503887,,,,,,,,,,,,,,,,,,,,,,,,,,,,33.61738120904192,33.624890250037424,35.11615112493746,35.122796250041574,,,,,,,,31.749005416990258,31.75438912503887,32.25427441694774,32.25427441694774,32.33100799995009,32.33100799995009,32.33100799995009,33.61725929193199,left,1,1.8585730829508975,None,,,,,,,,,,,,,,,,,,,,,,,,,,191038,001,2025-08-16_11h23.38.929,tilt_mocs,2024.2.4,None,2025-08-16 11h23.45.641379 -0700
30,69,right,5,5,0,,,,,0,right,1,1.061339542036876,None,,,,,,,,,,,0,5,5,5,,,,,35.122796250041574,,,,,,,,,,,,,,,,,,,,,,,,,,,,36.187465084018186,36.19845970894676,37.68301670893561,37.69136666704435,,,,,,,,35.11678845901042,35.122796250041574,35.61417737498414,35.61417737498414,35.688618000014685,35.688618000014685,35.688618000014685,36.187353209010325,right,1,1.061339542036876,None,,,,,,,,,,,,,,,,,,,,,,,,,,191038,001,2025-08-16_11h23.38.929,tilt_mocs,2024.2.4,None,2025-08-16 11h23.45.641379 -0700
,,,,,,,,,,,,,,,,,,,,,,,,,,,,,,,,,,,,,,,,,,,,,,,,,,,,,,,,,,,,,,,,,,,,,,,,,,,,,,,,,,,,37.68322200002149,37.69136666704435,37.69136666704435,39.25065733399242,space,1.546037832973525,None,,,,,,,,,,,,,,,,,,,191038,001,2025-08-16_11h23.38.929,tilt_mocs,2024.2.4,None,2025-08-16 11h23.45.641379 -0700
-1,0,,0,0,0,,,,,,,,,,p1,noss,0,left,1.4433835829840973,None,,,,,,,,,0,0,0,28,39.270172583987005,,,,,,,,,,,,,,,,,,,,,,,,,,,,,,,,,,,,,,,,,,,,,,,,,,,,,,,,,,39.26232312503271,39.270172583987005,39.755155834020115,39.755155834020115,39.82148812501691,39.83213824999984,39.83213824999984,40.71747037500609,left,1.4433835829840973,None,,,,,,,,191038,001,2025-08-16_11h23.38.929,tilt_mocs,2024.2.4,None,2025-08-16 11h23.45.641379 -0700
-2,-15,,1,1,0,,,,,,,,,,PSE,negs,100,right,1.5781222080113366,None,,,,,,,,,0,1,1,5,40.726169458939694,,,,,,,,,,,,,,,,,,,,,,,,,,,,,,,,,,,,,,,,,,,,,,,,,,,,,,,,,,40.71906575001776,40.726169458939694,41.21472220902797,41.21472220902797,41.28622383403126,41.28622383403126,41.28622383403126,42.30664958397392,right,1.5781222080113366,None,,,,,,,,191038,001,2025-08-16_11h23.38.929,tilt_mocs,2024.2.4,None,2025-08-16 11h23.45.641379 -0700
1,15,,2,2,0,,,,,,,,,,m1,poss,100,left,1.1849079579114914,None,,,,,,,,,0,2,2,11,42.31459071,,,,,,,,,,,,,,,,,,,,,,,,,,,,,,,,,,,,,,,,,,,,,,,,,,,,,,,,,,42.30769170902204,42.31459071,42.80662820895668,42.80662820895668,42.88173712498974,42.88173712498974,42.88173712498974,43.50845266703982,left,1.1849079579114914,None,,,,,,,,191038,001,2025-08-16_11h23.38.929,tilt_mocs,2024.2.4,None,2025-08-16 11h23.45.641379 -0700
0,0,,3,3,0,,,,,,,,,,m2,noss,0,right,1.5711934579303488,None,,,,,,,,,0,3,3,52,43.51388670899905,,,,,,,,,,,,,,,,,,,,,,,,,,,,,,,,,,,,,,,,,,,,,,,,,,,,,,,,,,43.50941929,43.51388670899905,44.00739791698288,44.00739791698288,44.081888249958865,44.081888249958865,44.081888249958865,45.088744584005326,right,1.5711934579303488,None,,,,,,,,191038,001,2025-08-16_11h23.38.929,tilt_mocs,2024.2.4,None,2025-08-16 11h23.45.641379 -0700
-4,-15,,4,4,0,,,,,,,,,,m2,negs,100,left,1.2160312499618158,None,,,,,,,,,0,4,4,47,45.09748804196715,,,,,,,,,,,,,,,,,,,,,,,,,,,,,,,,,,,,,,,,,,,,,,,,,,,,,,,,,,45.08977929200046,45.09748804196715,45.580762833938934,45.580762833938934,45.66557404201012,45.65364858403336,45.65364858403336,46.31704404193442,left,1.2160312499618158,None,,,,,,,,191038,001,2025-08-16_11h23.38.929,tilt_mocs,2024.2.4,None,2025-08-16 11h23.45.641379 -0700
0,-15,,5,5,0,,,,,,,,,,p2,negs,100,right,1.0001257499679923,None,,,,,,,,,0,5,5,19,46.32492249994539,,,,,,,,,,,,,,,,,,,,,,,,,,,,,,,,,,,,,,,,,,,,,,,,,,,,,,,,,,46.31820217,46.32492249994539,46.81486408400815,46.81486408400815,46.88555745896883,46.88555745896883,46.88555745896883,47.33386558,right,1.0001257499679923,None,,,,,,,,191038,001,2025-08-16_11h23.38.929,tilt_mocs,2024.2.4,None,2025-08-16 11h23.45.641379 -0700
3,15,,6,6,0,,,,,,,,,,p1,poss,100,left,1.3150333749363199,None,,,,,,,,,0,6,6,43,47.34162066702265,,,,,,,,,,,,,,,,,,,,,,,,,,,,,,,,,,,,,,,,,,,,,,,,,,,,,,,,,,47.33493174996693,47.34162066702265,47.83086279197596,47.83086279197596,47.90463558398187,47.90463558398187,47.90463558398187,48.665780917042866,left,1.3150333749363199,None,,,,,,,,191038,001,2025-08-16_11h23.38.929,tilt_mocs,2024.2.4,None,2025-08-16 11h23.45.641379 -0700
-1,-15,,7,7,0,,,,,,,,,,p1,negs,100,right,1.0831305000465363,None,,,,,,,,,0,7,7,8,48.671483500045724,,,,,,,,,,,,,,,,,,,,,,,,,,,,,,,,,,,,,,,,,,,,,,,,,,,,,,,,,,48.66668958,48.671483500045724,49.164831749978475,49.164831749978475,49.23549412493594,49.23549412493594,49.23549412493594,49.75700624997262,right,1.0831305000465363,None,,,,,,,,191038,001,2025-08-16_11h23.38.929,tilt_mocs,2024.2.4,None,2025-08-16 11h23.45.641379 -0700
0,0,,8,8,0,,,,,,,,,,m2,noss,0,left,1.021564875,None,,,,,,,,,0,8,8,22,49.765419916948304,,,,,,,,,,,,,,,,,,,,,,,,,,,,,,,,,,,,,,,,,,,,,,,,,,,,,,,,,,49.758048166986555,49.765419916948304,50.25538821,50.25538821,50.33250191702973,50.33250191702973,50.33250191702973,50.789835041970946,left,1.021564875,None,,,,,,,,191038,001,2025-08-16_11h23.38.929,tilt_mocs,2024.2.4,None,2025-08-16 11h23.45.641379 -0700
-2,-15,,9,9,0,,,,,,,,,,PSE,negs,100,right,1.0857499999692664,None,,,,,,,,,0,9,9,45,50.798054500017315,,,,,,,,,,,,,,,,,,,,,,,,,,,,,,,,,,,,,,,,,,,,,,,,,,,,,,,,,,50.79097508394625,50.798054500017315,51.288471375009976,51.288471375009976,51.36585120903328,51.36585120903328,51.36585120903328,51.886383041972294,right,1.0857499999692664,None,,,,,,,,191038,001,2025-08-16_11h23.38.929,tilt_mocs,2024.2.4,None,2025-08-16 11h23.45.641379 -0700
4,15,,10,10,0,,,,,,,,,,p2,poss,100,right,1.0953612920129672,None,,,,,,,,,0,10,10,44,51.89856699993834,,,,,,,,,,,,,,,,,,,,,,,,,,,,,,,,,,,,,,,,,,,,,,,,,,,,,,,,,,51.88719520904124,51.89856699993834,52.38106208399404,52.38106208399404,52.46530920895748,52.45468379196245,52.45468379196245,53.00104941695463,right,1.0953612920129672,None,,,,,,,,191038,001,2025-08-16_11h23.38.929,tilt_mocs,2024.2.4,None,2025-08-16 11h23.45.641379 -0700
0,15,,11,11,0,,,,,,,,,,m2,poss,100,left,1.0348129590274766,None,,,,,,,,,0,11,11,12,53.00960466696415,,,,,,,,,,,,,,,,,,,,,,,,,,,,,,,,,,,,,,,,,,,,,,,,,,,,,,,,,,53.002655958989635,53.00960466696415,53.49740395904519,53.49740395904519,53.571338542038575,53.571338542038575,53.571338542038575,54.050721667008474,left,1.0348129590274766,None,,,,,,,,191038,001,2025-08-16_11h23.38.929,tilt_mocs,2024.2.4,None,2025-08-16 11h23.45.641379 -0700
0,0,,12,12,0,,,,,,,,,,p2,noss,0,left,1.1131029169773683,None,,,,,,,,,0,12,12,29,54.05930854193866,,,,,,,,,,,,,,,,,,,,,,,,,,,,,,,,,,,,,,,,,,,,,,,,,,,,,,,,,,54.052170749986544,54.05930854193866,54.54748983401805,54.54748983401805,54.62182070896961,54.62182070896961,54.62182070896961,55.18362675001845,left,1.1131029169773683,None,,,,,,,,191038,001,2025-08-16_11h23.38.929,tilt_mocs,2024.2.4,None,2025-08-16 11h23.45.641379 -0700
0,-15,,13,13,0,,,,,,,,,,p2,negs,100,right,1.0681433751014993,None,,,,,,,,,0,13,13,39,55.191379124997184,,,,,,,,,,,,,,,,,,,,,,,,,,,,,,,,,,,,,,,,,,,,,,,,,,,,,,,,,,55.18469487503171,55.191379124997184,55.68137474998366,55.68137474998366,55.75558050000109,55.75558050000109,55.75558050000109,56.266295542009175,right,1.0681433751014993,None,,,,,,,,191038,001,2025-08-16_11h23.38.929,tilt_mocs,2024.2.4,None,2025-08-16 11h23.45.641379 -0700
0,15,,14,14,0,,,,,,,,,,m2,poss,100,left,0.993328083,None,,,,,,,,,0,14,14,32,56.27339804195799,,,,,,,,,,,,,,,,,,,,,,,,,,,,,,,,,,,,,,,,,,,,,,,,,,,,,,,,,,56.26727687497623,56.27339804195799,56.76421687495895,56.76421687495895,56.83625549997669,56.83625549997669,56.83625549997669,57.26986925001256,left,0.993328083,None,,,,,,,,191038,001,2025-08-16_11h23.38.929,tilt_mocs,2024.2.4,None,2025-08-16 11h23.45.641379 -0700
-4,0,,15,15,0,,,,,,,,,,m2,noss,0,left,0.9436454169917852,None,,,,,,,,,0,15,15,27,57.28176317,,,,,,,,,,,,,,,,,,,,,,,,,,,,,,,,,,,,,,,,,,,,,,,,,,,,,,,,,,57.270841166959144,57.28176317,57.76423645904288,57.76423645904288,57.84764116699807,57.83462450001389,57.83462450001389,58.23338283400517,left,0.9436454169917852,None,,,,,,,,191038,001,2025-08-16_11h23.38.929,tilt_mocs,2024.2.4,None,2025-08-16 11h23.45.641379 -0700
2,15,,16,16,0,,,,,,,,,,PSE,poss,100,right,6.609266458079219,None,,,,,,,,,0,16,16,30,58.24128912494052,,,,,,,,,,,,,,,,,,,,,,,,,,,,,,,,,,,,,,,,,,,,,,,,,,,,,,,,,,58.23438442,58.24128912494052,58.73189579194877,58.73189579194877,58.802475000033155,58.802475000033155,58.802475000033155,64.85370220895857,right,6.609266458079219,None,,,,,,,,191038,001,2025-08-16_11h23.38.929,tilt_mocs,2024.2.4,None,2025-08-16 11h23.45.641379 -0700
-4,-15,,17,17,0,,,,,,,,,,m2,negs,100,left,1.107043334050104,None,,,,,,,,,0,17,17,7,64.86451483,,,,,,,,,,,,,,,,,,,,,,,,,,,,,,,,,,,,,,,,,,,,,,,,,,,,,,,,,,64.85473708400968,64.86451483,65.34784116700757,65.34784116700757,65.43227766698692,65.42127604200505,65.42127604200505,65.98431845894083,left,1.107043334050104,None,,,,,,,,191038,001,2025-08-16_11h23.38.929,tilt_mocs,2024.2.4,None,2025-08-16 11h23.45.641379 -0700
-1,-15,,18,18,0,,,,,,,,,,p1,negs,100,right,1.0678373749833554,None,,,,,,,,,0,18,18,18,65.99302804202307,,,,,,,,,,,,,,,,,,,,,,,,,,,,,,,,,,,,,,,,,,,,,,,,,,,,,,,,,,65.98611716693267,65.99302804202307,66.48190408397932,66.48190408397932,66.55486138,66.55486138,66.55486138,67.06679529196117,right,1.0678373749833554,None,,,,,,,,191038,001,2025-08-16_11h23.38.929,tilt_mocs,2024.2.4,None,2025-08-16 11h23.45.641379 -0700
2,15,,19,19,0,,,,,,,,,,PSE,poss,100,left,1.0313520421041176,None,,,,,,,,,0,19,19,0,67.07480766694061,,,,,,,,,,,,,,,,,,,,,,,,,,,,,,,,,,,,,,,,,,,,,,,,,,,,,,,,,,67.06805533403531,67.07480766694061,67.56404099997599,67.56404099997599,67.63884067,67.63884067,67.63884067,68.11729399999604,left,1.0313520421041176,None,,,,,,,,191038,001,2025-08-16_11h23.38.929,tilt_mocs,2024.2.4,None,2025-08-16 11h23.45.641379 -0700
-2,0,,20,20,0,,,,,,,,,,PSE,noss,0,left,0.9585823339875787,None,,,,,,,,,0,20,20,25,68.12542558,,,,,,,,,,,,,,,,,,,,,,,,,,,,,,,,,,,,,,,,,,,,,,,,,,,,,,,,,,68.11851624993142,68.12542558,68.61416412494145,68.61416412494145,68.68926633393858,68.68926633393858,68.68926633393858,69.08864629198797,left,0.9585823339875787,None,,,,,,,,191038,001,2025-08-16_11h23.38.929,tilt_mocs,2024.2.4,None,2025-08-16 11h23.45.641379 -0700
-1,0,,21,21,0,,,,,,,,,,p1,noss,0,left,0.9689187500625849,None,,,,,,,,,0,21,21,58,69.09746579197235,,,,,,,,,,,,,,,,,,,,,,,,,,,,,,,,,,,,,,,,,,,,,,,,,,,,,,,,,,69.08991137496196,69.09746579197235,69.59144667,69.59144667,69.66529879,69.66529879,69.66529879,70.07563520898111,left,0.9689187500625849,None,,,,,,,,191038,001,2025-08-16_11h23.38.929,tilt_mocs,2024.2.4,None,2025-08-16 11h23.45.641379 -0700
1,15,,22,22,0,,,,,,,,,,m1,poss,100,left,1.1957590420497581,None,,,,,,,,,0,22,22,1,70.08104704204015,,,,,,,,,,,,,,,,,,,,,,,,,,,,,,,,,,,,,,,,,,,,,,,,,,,,,,,,,,70.07659883401357,70.08104704204015,70.57404274994042,70.57404274994042,70.64906850003172,70.64906850003172,70.64906850003172,71.28409287,left,1.1957590420497581,None,,,,,,,,191038,001,2025-08-16_11h23.38.929,tilt_mocs,2024.2.4,None,2025-08-16 11h23.45.641379 -0700
2,0,,23,23,0,,,,,,,,,,PSE,noss,0,right,0.9350309160072356,None,,,,,,,,,0,23,23,20,71.29255487502087,,,,,,,,,,,,,,,,,,,,,,,,,,,,,,,,,,,,,,,,,,,,,,,,,,,,,,,,,,71.28560145897791,71.29255487502087,71.78195379197132,71.78195379197132,71.85279562498908,71.85279562498908,71.85279562498908,72.23325537494384,right,0.9350309160072356,None,,,,,,,,191038,001,2025-08-16_11h23.38.929,tilt_mocs,2024.2.4,None,2025-08-16 11h23.45.641379 -0700
1,0,,24,24,0,,,,,,,,,,m1,noss,0,right,1.1440539170289412,None,,,,,,,,,0,24,24,21,72.24057683395222,,,,,,,,,,,,,,,,,,,,,,,,,,,,,,,,,,,,,,,,,,,,,,,,,,,,,,,,,,72.23425312503241,72.24057683395222,72.73089771,72.73089771,72.80078358401079,72.80078358401079,72.80078358401079,73.38740170898382,right,1.1440539170289412,None,,,,,,,,191038,001,2025-08-16_11h23.38.929,tilt_mocs,2024.2.4,None,2025-08-16 11h23.45.641379 -0700
4,0,,25,25,0,,,,,,,,,,p2,noss,0,right,0.9411974999820814,None,,,,,,,,,0,25,25,54,73.39745991700329,,,,,,,,,,,,,,,,,,,,,,,,,,,,,,,,,,,,,,,,,,,,,,,,,,,,,,,,,,73.38844067,73.39745991700329,73.88160525,73.88160525,73.96549546,73.95280625,73.95280625,74.34867866698187,right,0.9411974999820814,None,,,,,,,,191038,001,2025-08-16_11h23.38.929,tilt_mocs,2024.2.4,None,2025-08-16 11h23.45.641379 -0700
-2,0,,26,26,0,,,,,,,,,,PSE,noss,0,left,0.9668435839703307,None,,,,,,,,,0,26,26,55,74.35403879196383,,,,,,,,,,,,,,,,,,,,,,,,,,,,,,,,,,,,,,,,,,,,,,,,,,,,,,,,,,74.34968233399559,74.35403879196383,74.83844091696665,74.83844091696665,74.91924604203086,74.91529925004579,74.91529925004579,75.32325250003487,left,0.9668435839703307,None,,,,,,,,191038,001,2025-08-16_11h23.38.929,tilt_mocs,2024.2.4,None,2025-08-16 11h23.45.641379 -0700
0,-15,,27,27,0,,,,,,,,,,p2,negs,100,right,1.0021330000599846,None,,,,,,,,,0,27,27,49,75.33102542,,,,,,,,,,,,,,,,,,,,,,,,,,,,,,,,,,,,,,,,,,,,,,,,,,,,,,,,,,75.32424604194239,75.33102542,75.82214037503581,75.82214037503581,75.89844845898915,75.89844845898915,75.89844845898915,76.33484554197639,right,1.0021330000599846,None,,,,,,,,191038,001,2025-08-16_11h23.38.929,tilt_mocs,2024.2.4,None,2025-08-16 11h23.45.641379 -0700
-4,-15,,28,28,0,,,,,,,,,,m2,negs,100,left,2.2030032090842724,None,,,,,,,,,0,28,28,17,76.34013987495564,,,,,,,,,,,,,,,,,,,,,,,,,,,,,,,,,,,,,,,,,,,,,,,,,,,,,,,,,,76.33538666693494,76.34013987495564,76.83117387501989,76.83117387501989,76.90446112502832,76.90446112502832,76.90446112502832,78.55020112497732,left,2.2030032090842724,None,,,,,,,,191038,001,2025-08-16_11h23.38.929,tilt_mocs,2024.2.4,None,2025-08-16 11h23.45.641379 -0700
0,15,,29,29,0,,,,,,,,,,m2,poss,100,left,0.9380017910152674,None,,,,,,,,,0,29,29,42,78.55835646,,,,,,,,,,,,,,,,,,,,,,,,,,,,,,,,,,,,,,,,,,,,,,,,,,,,,,,,,,78.55122395895887,78.55835646,79.04883083398454,79.04883083398454,79.12064829200972,79.12064829200972,79.12064829200972,79.50038612494245,left,0.9380017910152674,None,,,,,,,,191038,001,2025-08-16_11h23.38.929,tilt_mocs,2024.2.4,None,2025-08-16 11h23.45.641379 -0700
-3,-15,,30,30,0,,,,,,,,,,m1,negs,100,left,1.078826459008269,None,,,,,,,,,0,30,30,36,79.50871479,,,,,,,,,,,,,,,,,,,,,,,,,,,,,,,,,,,,,,,,,,,,,,,,,,,,,,,,,,79.50147245894186,79.50871479,79.99888020893559,79.99888020893559,80.07158591703046,80.07158591703046,80.07158591703046,80.59021779196337,left,1.078826459008269,None,,,,,,,,191038,001,2025-08-16_11h23.38.929,tilt_mocs,2024.2.4,None,2025-08-16 11h23.45.641379 -0700
3,15,,31,31,0,,,,,,,,,,p1,poss,100,left,1.0623421669006348,None,,,,,,,,,0,31,31,3,80.59848512499593,,,,,,,,,,,,,,,,,,,,,,,,,,,,,,,,,,,,,,,,,,,,,,,,,,,,,,,,,,80.59133425,80.59848512499593,81.08892891695723,81.08892891695723,81.16509233403485,81.16509233403485,81.16509233403485,81.66681533,left,1.0623421669006348,None,,,,,,,,191038,001,2025-08-16_11h23.38.929,tilt_mocs,2024.2.4,None,2025-08-16 11h23.45.641379 -0700
-4,-15,,32,32,0,,,,,,,,,,m2,negs,100,left,1.2336348339449614,None,,,,,,,,,0,32,32,37,81.67474395898171,,,,,,,,,,,,,,,,,,,,,,,,,,,,,,,,,,,,,,,,,,,,,,,,,,,,,,,,,,81.66782729199622,81.67474395898171,82.16516083397437,82.16516083397437,82.23556383396499,82.23556383396499,82.23556383396499,82.91694324999116,left,1.2336348339449614,None,,,,,,,,191038,001,2025-08-16_11h23.38.929,tilt_mocs,2024.2.4,None,2025-08-16 11h23.45.641379 -0700
1,15,,33,33,0,,,,,,,,,,m1,poss,100,left,1.0698247089749202,None,,,,,,,,,0,33,33,31,82.92470904195216,,,,,,,,,,,,,,,,,,,,,,,,,,,,,,,,,,,,,,,,,,,,,,,,,,,,,,,,,,82.91794612503145,82.92470904195216,83.41417712497059,83.41417712497059,83.48845812503714,83.48845812503714,83.48845812503714,84.00033391697798,left,1.0698247089749202,None,,,,,,,,191038,001,2025-08-16_11h23.38.929,tilt_mocs,2024.2.4,None,2025-08-16 11h23.45.641379 -0700
1,15,,34,34,0,,,,,,,,,,m1,poss,100,left,0.9457207079976797,None,,,,,,,,,0,34,34,41,84.00836766697466,,,,,,,,,,,,,,,,,,,,,,,,,,,,,,,,,,,,,,,,,,,,,,,,,,,,,,,,,,84.00139387499075,84.00836766697466,84.49750674993265,84.49750674993265,84.57185658393428,84.57185658393428,84.57185658393428,84.96678875002544,left,0.9457207079976797,None,,,,,,,,191038,001,2025-08-16_11h23.38.929,tilt_mocs,2024.2.4,None,2025-08-16 11h23.45.641379 -0700
-3,-15,,35,35,0,,,,,,,,,,m1,negs,100,left,2.0083083750214428,None,,,,,,,,,0,35,35,46,84.97479879204184,,,,,,,,,,,,,,,,,,,,,,,,,,,,,,,,,,,,,,,,,,,,,,,,,,,,,,,,,,84.96788666700013,84.97479879204184,85.46405420894735,85.46405420894735,85.53841525001917,85.53841525001917,85.53841525001917,86.99143166700378,left,2.0083083750214428,None,,,,,,,,191038,001,2025-08-16_11h23.38.929,tilt_mocs,2024.2.4,None,2025-08-16 11h23.45.641379 -0700
4,0,,36,36,0,,,,,,,,,,p2,noss,0,right,0.9539789579575881,None,,,,,,,,,0,36,36,24,86.99727266700938,,,,,,,,,,,,,,,,,,,,,,,,,,,,,,,,,,,,,,,,,,,,,,,,,,,,,,,,,,86.99246912496164,86.99727266700938,87.49053233396262,87.49053233396262,87.56499179196544,87.56499179196544,87.56499179196544,87.95336691697594,right,0.9539789579575881,None,,,,,,,,191038,001,2025-08-16_11h23.38.929,tilt_mocs,2024.2.4,None,2025-08-16 11h23.45.641379 -0700
-3,-15,,37,37,0,,,,,,,,,,m1,negs,100,left,2.9450541670667008,None,,,,,,,,,0,37,37,16,87.96514295903035,,,,,,,,,,,,,,,,,,,,,,,,,,,,,,,,,,,,,,,,,,,,,,,,,,,,,,,,,,87.95432596,87.96514295903035,88.44750829203986,88.44750829203986,88.53221620898694,88.52108704193961,88.52108704193961,90.91703987494111,left,2.9450541670667008,None,,,,,,,,191038,001,2025-08-16_11h23.38.929,tilt_mocs,2024.2.4,None,2025-08-16 11h23.45.641379 -0700
2,15,,38,38,0,,,,,,,,,,PSE,poss,100,left,1.2478372500045225,None,,,,,,,,,0,38,38,40,90.92491212498862,,,,,,,,,,,,,,,,,,,,,,,,,,,,,,,,,,,,,,,,,,,,,,,,,,,,,,,,,,90.91809604200535,90.92491212498862,91.41474429203663,91.41474429203663,91.48838691704441,91.48838691704441,91.48838691704441,92.18171620904468,left,1.2478372500045225,None,,,,,,,,191038,001,2025-08-16_11h23.38.929,tilt_mocs,2024.2.4,None,2025-08-16 11h23.45.641379 -0700
-1,-15,,39,39,0,,,,,,,,,,p1,negs,100,right,1.0361833340721205,None,,,,,,,,,0,39,39,48,92.186151,,,,,,,,,,,,,,,,,,,,,,,,,,,,,,,,,,,,,,,,,,,,,,,,,,,,,,,,,,92.18216663,92.186151,92.67076379200444,92.67076379200444,92.75557937496342,92.74792195903137,92.74792195903137,93.23338641703594,right,1.0361833340721205,None,,,,,,,,191038,001,2025-08-16_11h23.38.929,tilt_mocs,2024.2.4,None,2025-08-16 11h23.45.641379 -0700
-3,0,,40,40,0,,,,,,,,,,m1,noss,0,left,1.0549390410305932,None,,,,,,,,,0,40,40,26,93.24143083393574,,,,,,,,,,,,,,,,,,,,,,,,,,,,,,,,,,,,,,,,,,,,,,,,,,,,,,,,,,93.23443833400961,93.24143083393574,93.73083979194053,93.73083979194053,93.80379345896654,93.80379345896654,93.80379345896654,94.30024841695558,left,1.0549390410305932,None,,,,,,,,191038,001,2025-08-16_11h23.38.929,tilt_mocs,2024.2.4,None,2025-08-16 11h23.45.641379 -0700
3,0,,41,41,0,,,,,,,,,,p1,noss,0,right,0.9648437920259312,None,,,,,,,,,0,41,41,53,94.30798799998593,,,,,,,,,,,,,,,,,,,,,,,,,,,,,,,,,,,,,,,,,,,,,,,,,,,,,,,,,,94.30128667,94.30798799998593,94.79829992,94.79829992,94.87181808403693,94.87181808403693,94.87181808403693,95.28174170898274,right,0.9648437920259312,None,,,,,,,,191038,001,2025-08-16_11h23.38.929,tilt_mocs,2024.2.4,None,2025-08-16 11h23.45.641379 -0700
3,15,,42,42,0,,,,,,,,,,p1,poss,100,right,1.186775500071235,None,,,,,,,,,0,42,42,33,95.28647937,,,,,,,,,,,,,,,,,,,,,,,,,,,,,,,,,,,,,,,,,,,,,,,,,,,,,,,,,,95.28233133396134,95.28647937,95.77190475002863,95.77190475002863,95.85199287498835,95.84807770897169,95.84807770897169,96.48387229198124,right,1.186775500071235,None,,,,,,,,191038,001,2025-08-16_11h23.38.929,tilt_mocs,2024.2.4,None,2025-08-16 11h23.45.641379 -0700
2,15,,43,43,0,,,,,,,,,,PSE,poss,100,right,4.897131875040941,None,,,,,,,,,0,43,43,10,96.49221729196142,,,,,,,,,,,,,,,,,,,,,,,,,,,,,,,,,,,,,,,,,,,,,,,,,,,,,,,,,,96.48535495903343,96.49221729196142,96.98122879199218,96.98122879199218,97.05357849993743,97.05357849993743,97.05357849993743,101.40074808395002,right,4.897131875040941,None,,,,,,,,191038,001,2025-08-16_11h23.38.929,tilt_mocs,2024.2.4,None,2025-08-16 11h23.45.641379 -0700
2,0,,44,44,0,,,,,,,,,,PSE,noss,0,right,0.9331763749942183,None,,,,,,,,,0,44,44,50,101.40925620903727,,,,,,,,,,,,,,,,,,,,,,,,,,,,,,,,,,,,,,,,,,,,,,,,,,,,,,,,,,101.40202504198533,101.40925620903727,101.89824195904657,101.89824195904657,101.96988795895595,101.96988795895595,101.96988795895595,102.35081287496723,right,0.9331763749942183,None,,,,,,,,191038,001,2025-08-16_11h23.38.929,tilt_mocs,2024.2.4,None,2025-08-16 11h23.45.641379 -0700
-2,-15,,45,45,0,,,,,,,,,,PSE,negs,100,right,2.9767057499848306,None,,,,,,,,,0,45,45,35,102.35931829200126,,,,,,,,,,,,,,,,,,,,,,,,,,,,,,,,,,,,,,,,,,,,,,,,,,,,,,,,,,102.3522167,102.35931829200126,102.84831658401527,102.84831658401527,102.91949612495955,102.91949612495955,102.91949612495955,105.33886754198465,right,2.9767057499848306,None,,,,,,,,191038,001,2025-08-16_11h23.38.929,tilt_mocs,2024.2.4,None,2025-08-16 11h23.45.641379 -0700
4,15,,46,46,0,,,,,,,,,,p2,poss,100,right,1.0132005419582129,None,,,,,,,,,0,46,46,4,105.34732641698793,,,,,,,,,,,,,,,,,,,,,,,,,,,,,,,,,,,,,,,,,,,,,,,,,,,,,,,,,,105.33991545904428,105.34732641698793,105.8385142920306,105.8385142920306,105.91539808397647,105.91539808397647,105.91539808397647,106.36800266697537,right,1.0132005419582129,None,,,,,,,,191038,001,2025-08-16_11h23.38.929,tilt_mocs,2024.2.4,None,2025-08-16 11h23.45.641379 -0700
1,0,,47,47,0,,,,,,,,,,m1,noss,0,right,0.948228458,None,,,,,,,,,0,47,47,51,106.37639362504706,,,,,,,,,,,,,,,,,,,,,,,,,,,,,,,,,,,,,,,,,,,,,,,,,,,,,,,,,,106.36963958397973,106.37639362504706,106.86401124997064,106.86401124997064,106.93509112496395,106.93509112496395,106.93509112496395,107.33422204200178,right,0.948228458,None,,,,,,,,191038,001,2025-08-16_11h23.38.929,tilt_mocs,2024.2.4,None,2025-08-16 11h23.45.641379 -0700
4,15,,48,48,0,,,,,,,,,,p2,poss,100,right,0.8839375840034336,None,,,,,,,,,0,48,48,14,107.34280320897233,,,,,,,,,,,,,,,,,,,,,,,,,,,,,,,,,,,,,,,,,,,,,,,,,,,,,,,,,,107.33566991693806,107.34280320897233,107.83082945900969,107.83082945900969,107.90350041701458,107.90350041701458,107.90350041701458,108.23143912502564,right,0.8839375840034336,None,,,,,,,,191038,001,2025-08-16_11h23.38.929,tilt_mocs,2024.2.4,None,2025-08-16 11h23.45.641379 -0700
-2,-15,,49,49,0,,,,,,,,,,PSE,negs,100,left,1.1313051250763237,None,,,,,,,,,0,49,49,15,108.23581279197242,,,,,,,,,,,,,,,,,,,,,,,,,,,,,,,,,,,,,,,,,,,,,,,,,,,,,,,,,,108.23193604196422,108.23581279197242,108.72127283399459,108.72127283399459,108.81455679202918,108.80191829195246,108.80191829195246,109.37382058403455,left,1.1313051250763237,None,,,,,,,,191038,001,2025-08-16_11h23.38.929,tilt_mocs,2024.2.4,None,2025-08-16 11h23.45.641379 -0700
4,15,,50,50,0,,,,,,,,,,p2,poss,100,right,0.985655167,None,,,,,,,,,0,50,50,34,109.38466516695917,,,,,,,,,,,,,,,,,,,,,,,,,,,,,,,,,,,,,,,,,,,,,,,,,,,,,,,,,,109.37583925004583,109.38466516695917,109.87268541695084,109.87268541695084,109.95245741703548,109.94840583403129,109.94840583403129,110.38327270897571,right,0.985655167,None,,,,,,,,191038,001,2025-08-16_11h23.38.929,tilt_mocs,2024.2.4,None,2025-08-16 11h23.45.641379 -0700
3,0,,51,51,0,,,,,,,,,,p1,noss,0,right,0.9139461669838056,None,,,,,,,,,0,51,51,23,110.39064112503547,,,,,,,,,,,,,,,,,,,,,,,,,,,,,,,,,,,,,,,,,,,,,,,,,,,,,,,,,,110.38449462503195,110.39064112503547,110.88061666698195,110.88061666698195,110.95215262495913,110.95215262495913,110.95215262495913,111.31620529200882,right,0.9139461669838056,None,,,,,,,,191038,001,2025-08-16_11h23.38.929,tilt_mocs,2024.2.4,None,2025-08-16 11h23.45.641379 -0700
3,15,,52,52,0,,,,,,,,,,p1,poss,100,right,1.7210525829577819,None,,,,,,,,,0,52,52,13,111.32327337493189,,,,,,,,,,,,,,,,,,,,,,,,,,,,,,,,,,,,,,,,,,,,,,,,,,,,,,,,,,111.3172776249703,111.32327337493189,111.81495699996594,111.81495699996594,111.88521433400456,111.88521433400456,111.88521433400456,113.05085145903286,right,1.7210525829577819,None,,,,,,,,191038,001,2025-08-16_11h23.38.929,tilt_mocs,2024.2.4,None,2025-08-16 11h23.45.641379 -0700
-3,-15,,53,53,0,,,,,,,,,,m1,negs,100,left,1.180117457988672,None,,,,,,,,,0,53,53,6,113.0590142919682,,,,,,,,,,,,,,,,,,,,,,,,,,,,,,,,,,,,,,,,,,,,,,,,,,,,,,,,,,113.05200204194989,113.0590142919682,113.54785858397372,113.54785858397372,113.62164374999702,113.62164374999702,113.62164374999702,114.25016525003593,left,1.180117457988672,None,,,,,,,,191038,001,2025-08-16_11h23.38.929,tilt_mocs,2024.2.4,None,2025-08-16 11h23.45.641379 -0700
0,0,,54,54,0,,,,,,,,,,p2,noss,0,left,1.2676409159321338,None,,,,,,,,,0,54,54,59,114.2577682089759,,,,,,,,,,,,,,,,,,,,,,,,,,,,,,,,,,,,,,,,,,,,,,,,,,,,,,,,,,114.2515383339487,114.2577682089759,114.74769541702699,114.74769541702699,114.82149779202882,114.82149779202882,114.82149779202882,115.5341484589735,left,1.2676409159321338,None,,,,,,,,191038,001,2025-08-16_11h23.38.929,tilt_mocs,2024.2.4,None,2025-08-16 11h23.45.641379 -0700
-4,0,,55,55,0,,,,,,,,,,m2,noss,0,left,0.9241031249985099,None,,,,,,,,,0,55,55,57,115.54297520895489,,,,,,,,,,,,,,,,,,,,,,,,,,,,,,,,,,,,,,,,,,,,,,,,,,,,,,,,,,115.53572279203217,115.54297520895489,116.0308265419444,116.0308265419444,116.10383733396884,116.10383733396884,116.10383733396884,116.47291291703004,left,0.9241031249985099,None,,,,,,,,191038,001,2025-08-16_11h23.38.929,tilt_mocs,2024.2.4,None,2025-08-16 11h23.45.641379 -0700
0,15,,56,56,0,,,,,,,,,,m2,poss,100,left,1.0192623750772327,None,,,,,,,,,0,56,56,2,116.48077987495344,,,,,,,,,,,,,,,,,,,,,,,,,,,,,,,,,,,,,,,,,,,,,,,,,,,,,,,,,,116.47393029194791,116.48077987495344,116.97375674999785,116.97375674999785,117.04885579203255,117.04885579203255,117.04885579203255,117.50606725004036,left,1.0192623750772327,None,,,,,,,,191038,001,2025-08-16_11h23.38.929,tilt_mocs,2024.2.4,None,2025-08-16 11h23.45.641379 -0700
-3,0,,57,57,0,,,,,,,,,,m1,noss,0,left,0.9245485829887912,None,,,,,,,,,0,57,57,56,117.51415145897772,,,,,,,,,,,,,,,,,,,,,,,,,,,,,,,,,,,,,,,,,,,,,,,,,,,,,,,,,,117.50725499994587,117.51415145897772,118.00616508396342,118.00616508396342,118.08176520897541,118.08176520897541,118.08176520897541,118.44814650004264,left,0.9245485829887912,None,,,,,,,,191038,001,2025-08-16_11h23.38.929,tilt_mocs,2024.2.4,None,2025-08-16 11h23.45.641379 -0700
-1,-15,,58,58,0,,,,,,,,,,p1,negs,100,right,1.2470084170345217,None,,,,,,,,,0,58,58,38,118.45339549996424,,,,,,,,,,,,,,,,,,,,,,,,,,,,,,,,,,,,,,,,,,,,,,,,,,,,,,,,,,118.44918020896148,118.45339549996424,118.93844183394685,118.93844183394685,119.02131445903797,119.01506879203953,119.01506879203953,119.70618108403869,right,1.2470084170345217,None,,,,,,,,191038,001,2025-08-16_11h23.38.929,tilt_mocs,2024.2.4,None,2025-08-16 11h23.45.641379 -0700
0,-15,,59,59,0,,,,,,,,,,p2,negs,100,right,0.9881813749670982,None,,,,,,,,,0,59,59,9,119.71398579201195,,,,,,,,,,,,,,,,,,,,,,,,,,,,,,,,,,,,,,,,,,,,,,,,,,,,,,,,,,119.7072240000125,119.71398579201195,120.20619412499946,120.20619412499946,120.28189604193904,120.28189604193904,120.28189604193904,120.70434091694187,right,0.9881813749670982,None,,,,,,,,191038,001,2025-08-16_11h23.38.929,tilt_mocs,2024.2.4,None,2025-08-16 11h23.45.641379 -0700
,,,,,,,,,,,,,,,,,,,,,,,,,,,,,,,,,,,,,,,,,,,,,,,,,,,,,,,,,,,,,,,,,,,,,,,,,,,,,,,,,,,,,,,,,,,,,,,,,,,,,,120.70461712498218,120.71426041703671,120.71426041703671,121.90599320898764,space,1.188331582932733,None,191038,001,2025-08-16_11h23.38.929,tilt_mocs,2024.2.4,None,2025-08-16 11h23.45.641379 -0700