center,surround,type,surr_type,surr_opacity,thisN,thisTrialN,thisRepN,resp.keys,resp.rt,resp.duration,practice_no_time.thisRepN,practice_no_time.thisTrialN,practice_no_time.thisN,practice_no_time.thisIndex,practice_timed.thisRepN,practice_timed.thisTrialN,practice_timed.thisN,practice_timed.thisIndex,trials.thisRepN,trials.thisTrialN,trials.thisN,trials.thisIndex,thisRow.t,notes,instr.started,text_5.started,key_resp_2.started,instr.stopped,key_resp_2.keys,key_resp_2.rt,key_resp_2.duration,instr2.started,text_6.started,key_resp_6.started,instr2.stopped,key_resp_6.keys,key_resp_6.rt,key_resp_6.duration,instr3.started,text_8.started,key_resp_5.started,instr3.stopped,key_resp_5.keys,key_resp_5.rt,key_resp_5.duration,start_instr.started,text_13.started,key_resp_8.started,start_instr.stopped,key_resp_8.keys,key_resp_8.rt,key_resp_8.duration,trial.started,resp.started,surround_grating.started,center_grating.started,surround_grating.stopped,center_grating.stopped,text_4.started,trial.stopped,trials.resp.keys,trials.resp.rt,trials.resp.duration,end.started,text_14.started,key_resp.started,end.stopped,key_resp.keys,key_resp.rt,key_resp.duration,participant,session,date,expName,psychopyVersion,frameRate,expStart
,,,,,,,,,,,,,,,,,,,,,,,,,0.009485541,0.020424833,0.020424833,0.550464166,space,0.5027057499391958,None,,,,,,,,,,,,,,,,,,,,,,,,,,,,,,,,,,,,,,,,272487,001,2025-08-16_12h05.33.078,tilt_mocs,2024.2.4,None,2025-08-16 12h05.39.814170 -0700
,,,,,,,,,,,,,,,,,,,,,,,,,,,,,,,,0.5505178329767659,0.5639287079684436,0.5639287079684436,0.7339879159117118,space,0.16817612492013723,None,,,,,,,,,,,,,,,,,,,,,,,,,,,,,,,,,272487,001,2025-08-16_12h05.33.078,tilt_mocs,2024.2.4,None,2025-08-16 12h05.39.814170 -0700
,,,,,,,,,,,,,,,,,,,,,,,,,,,,,,,,,,,,,,,0.7403116249479353,0.7509182909270748,0.7509182909270748,7.248998040915467,space,6.488179667037912,None,,,,,,,,,,,,,,,,,,,,,,,,,,272487,001,2025-08-16_12h05.33.078,tilt_mocs,2024.2.4,None,2025-08-16 12h05.39.814170 -0700
,,,,,,,,,,,,,,,,,,,,,,,,,,,,,,,,,,,,,,,,,,,,,,7.257091791019775,7.2665141659090295,7.2665141659090295,16.615185290924273,space,9.339683124911971,None,,,,,,,,,,,,,,,,,,,272487,001,2025-08-16_12h05.33.078,tilt_mocs,2024.2.4,None,2025-08-16 12h05.39.814170 -0700
-1.5,-15,p1,negs,100,0,0,0,right,1.1541952090337873,None,,,,,,,,,0,0,0,33,16.63473087491002,,,,,,,,,,,,,,,,,,,,,,,,,,,,,,16.62661108293105,16.63473087491002,17.11675429099705,17.11675429099705,17.185837624943815,17.185837624943815,17.185837624943815,17.797987291007303,right,1.1541952090337873,None,,,,,,,,272487,001,2025-08-16_12h05.33.078,tilt_mocs,2024.2.4,None,2025-08-16 12h05.39.814170 -0700
3.5,15,p2,poss,100,1,1,0,right,1.3993164170533419,None,,,,,,,,,0,1,1,36,17.87780487490818,,,,,,,,,,,,,,,,,,,,,,,,,,,,,,17.798810457927175,17.87780487490818,18.29648283298593,18.29648283298593,18.36759637494106,18.36759637494106,18.36759637494106,19.28218137496151,right,1.3993164170533419,None,,,,,,,,272487,001,2025-08-16_12h05.33.078,tilt_mocs,2024.2.4,None,2025-08-16 12h05.39.814170 -0700
-1.5,0,p1,noss,0,2,2,0,left,0.9739246250828728,None,,,,,,,,,0,2,2,29,19.290990374982357,,,,,,,,,,,,,,,,,,,,,,,,,,,,,,19.284008957911283,19.290990374982357,19.779697749996558,19.779697749996558,19.85080812498927,19.85080812498927,19.85080812498927,20.27000387501903,left,0.9739246250828728,None,,,,,,,,272487,001,2025-08-16_12h05.33.078,tilt_mocs,2024.2.4,None,2025-08-16 12h05.39.814170 -0700
1.5,0,m1,noss,0,3,3,0,right,0.9596900000469759,None,,,,,,,,,0,3,3,10,20.278582457918674,,,,,,,,,,,,,,,,,,,,,,,,,,,,,,20.271112332935445,20.278582457918674,20.76868612493854,20.76868612493854,20.846301040961407,20.846301040961407,20.846301040961407,21.248542374931276,right,0.9596900000469759,None,,,,,,,,272487,001,2025-08-16_12h05.33.078,tilt_mocs,2024.2.4,None,2025-08-16 12h05.39.814170 -0700
2,15,PSE,poss,100,4,4,0,right,1.678042082930915,None,,,,,,,,,0,4,4,56,21.256676124990918,,,,,,,,,,,,,,,,,,,,,,,,,,,,,,21.24993937497493,21.256676124990918,21.746261082938872,21.746261082938872,21.81691204092931,21.81691204092931,21.81691204092931,22.937341290991753,right,1.678042082930915,None,,,,,,,,272487,001,2025-08-16_12h05.33.078,tilt_mocs,2024.2.4,None,2025-08-16 12h05.39.814170 -0700
0.5,0,m2,noss,0,5,5,0,right,1.4226845839293674,None,,,,,,,,,0,5,5,22,22.94559566595126,,,,,,,,,,,,,,,,,,,,,,,,,,,,,,22.938360332977027,22.94559566595126,23.43737479101401,23.43737479101401,23.512225540936925,23.512225540936925,23.512225540936925,24.382290999987163,right,1.4226845839293674,None,,,,,,,,272487,001,2025-08-16_12h05.33.078,tilt_mocs,2024.2.4,None,2025-08-16 12h05.39.814170 -0700
2.5,0,p1,noss,0,6,6,0,right,0.94873,None,,,,,,,,,0,6,6,28,24.391226665931754,,,,,,,,,,,,,,,,,,,,,,,,,,,,,,24.384052874986082,24.391226665931754,24.87861899996642,24.87861899996642,24.952549082925543,24.952549082925543,24.952549082925543,25.348443749942817,right,0.94873,None,,,,,,,,272487,001,2025-08-16_12h05.33.078,tilt_mocs,2024.2.4,None,2025-08-16 12h05.39.814170 -0700
-2,-15,PSE,negs,100,7,7,0,right,1.0503555000759661,None,,,,,,,,,0,7,7,51,25.35718225000892,,,,,,,,,,,,,,,,,,,,,,,,,,,,,,25.350101582938805,25.35718225000892,25.846689541009255,25.846689541009255,25.917654082993977,25.917654082993977,25.917654082993977,26.41517749999184,right,1.0503555000759661,None,,,,,,,,272487,001,2025-08-16_12h05.33.078,tilt_mocs,2024.2.4,None,2025-08-16 12h05.39.814170 -0700
0.5,15,m2,poss,100,8,8,0,left,0.9645650408929214,None,,,,,,,,,0,8,8,12,26.422729665995575,,,,,,,,,,,,,,,,,,,,,,,,,,,,,,26.41654366592411,26.422729665995575,26.91292758297641,26.91292758297641,26.986343499971554,26.986343499971554,26.986343499971554,27.398522582952864,left,0.9645650408929214,None,,,,,,,,272487,001,2025-08-16_12h05.33.078,tilt_mocs,2024.2.4,None,2025-08-16 12h05.39.814170 -0700
2.5,15,p1,poss,100,9,9,0,right,0.9899662079988047,None,,,,,,,,,0,9,9,30,27.407631332986057,,,,,,,,,,,,,,,,,,,,,,,,,,,,,,27.400030332966708,27.407631332986057,27.896304707974195,27.896304707974195,27.96985120791942,27.96985120791942,27.96985120791942,28.40711041598115,right,0.9899662079988047,None,,,,,,,,272487,001,2025-08-16_12h05.33.078,tilt_mocs,2024.2.4,None,2025-08-16 12h05.39.814170 -0700
3.5,0,p2,noss,0,10,10,0,right,1.0060111249331385,None,,,,,,,,,0,10,10,46,28.412583165918477,,,,,,,,,,,,,,,,,,,,,,,,,,,,,,28.408132083015516,28.412583165918477,28.904892207938246,28.904892207938246,28.979696124908514,28.979696124908514,28.985997332958505,29.420674707973376,right,1.0060111249331385,None,,,,,,,,272487,001,2025-08-16_12h05.33.078,tilt_mocs,2024.2.4,None,2025-08-16 12h05.39.814170 -0700
-2.5,-15,m1,negs,100,11,11,0,right,1.1311669580172747,None,,,,,,,,,0,11,11,3,29.42866808292456,,,,,,,,,,,,,,,,,,,,,,,,,,,,,,29.421431415947154,29.42866808292456,29.92112587497104,29.92112587497104,29.996304707950912,29.996304707950912,29.996304707950912,30.56480695796199,right,1.1311669580172747,None,,,,,,,,272487,001,2025-08-16_12h05.33.078,tilt_mocs,2024.2.4,None,2025-08-16 12h05.39.814170 -0700
-2,0,PSE,noss,0,12,12,0,left,0.9999325419776142,None,,,,,,,,,0,12,12,59,30.572741999989375,,,,,,,,,,,,,,,,,,,,,,,,,,,,,,30.56582462,30.572741999989375,31.063034957973287,31.063034957973287,31.135587833006866,31.135587833006866,31.135587833006866,31.58196316601243,left,0.9999325419776142,None,,,,,,,,272487,001,2025-08-16_12h05.33.078,tilt_mocs,2024.2.4,None,2025-08-16 12h05.39.814170 -0700
-2,0,PSE,noss,0,13,13,0,left,0.9822248329874128,None,,,,,,,,,0,13,13,53,31.590660207904875,,,,,,,,,,,,,,,,,,,,,,,,,,,,,,31.58357449993491,31.590660207904875,32.078587290947326,32.078587290947326,32.15063254,32.15063254,32.15063254,32.58111345791258,left,0.9822248329874128,None,,,,,,,,272487,001,2025-08-16_12h05.33.078,tilt_mocs,2024.2.4,None,2025-08-16 12h05.39.814170 -0700
-2.5,0,m1,noss,0,14,14,0,left,1.1781097919447348,None,,,,,,,,,0,14,14,11,32.58897292,,,,,,,,,,,,,,,,,,,,,,,,,,,,,,32.58245466591325,32.58897292,33.07856549997814,33.07856549997814,33.15074887499213,33.15074887499213,33.15074887499213,33.76878870790824,left,1.1781097919447348,None,,,,,,,,272487,001,2025-08-16_12h05.33.078,tilt_mocs,2024.2.4,None,2025-08-16 12h05.39.814170 -0700
-2.5,-15,m1,negs,100,15,15,0,right,1.0813321250025183,None,,,,,,,,,0,15,15,9,33.77882566594053,,,,,,,,,,,,,,,,,,,,,,,,,,,,,,33.76980708295014,33.77882566594053,34.27126616600435,34.27126616600435,34.34662274993025,34.34662274993025,34.34662274993025,34.86497433297336,right,1.0813321250025183,None,,,,,,,,272487,001,2025-08-16_12h05.33.078,tilt_mocs,2024.2.4,None,2025-08-16 12h05.39.814170 -0700
-2.5,-15,m1,negs,100,16,16,0,right,2.7787187499925494,None,,,,,,,,,0,16,16,7,34.872861707932316,,,,,,,,,,,,,,,,,,,,,,,,,,,,,,34.86616016598418,34.872861707932316,35.363303915946744,35.363303915946744,35.43593220796902,35.43593220796902,35.43593220796902,37.664348499965854,right,2.7787187499925494,None,,,,,,,,272487,001,2025-08-16_12h05.33.078,tilt_mocs,2024.2.4,None,2025-08-16 12h05.39.814170 -0700
3.5,15,p2,poss,100,17,17,0,right,1.0785460419720039,None,,,,,,,,,0,17,17,42,37.67218342,,,,,,,,,,,,,,,,,,,,,,,,,,,,,,37.66533495800104,37.67218342,38.16318595793564,38.16318595793564,38.23594795796089,38.23594795796089,38.23594795796089,38.75284754100721,right,1.0785460419720039,None,,,,,,,,272487,001,2025-08-16_12h05.33.078,tilt_mocs,2024.2.4,None,2025-08-16 12h05.39.814170 -0700
1.5,15,m1,poss,100,18,18,0,left,0.9766340419882908,None,,,,,,,,,0,18,18,0,38.76181837497279,,,,,,,,,,,,,,,,,,,,,,,,,,,,,,38.75328425,38.76181837497279,39.25114049995318,39.25114049995318,39.328916874947026,39.328916874947026,39.328916874947026,39.74783779098652,left,0.9766340419882908,None,,,,,,,,272487,001,2025-08-16_12h05.33.078,tilt_mocs,2024.2.4,None,2025-08-16 12h05.39.814170 -0700
-1.5,-15,p1,negs,100,19,19,0,right,1.0600990840466693,None,,,,,,,,,0,19,19,25,39.75521371,,,,,,,,,,,,,,,,,,,,,,,,,,,,,,39.74888774997089,39.75521371,40.24638720799703,40.24638720799703,40.31698024994694,40.31698024994694,40.31698024994694,40.81830604095012,right,1.0600990840466693,None,,,,,,,,272487,001,2025-08-16_12h05.33.078,tilt_mocs,2024.2.4,None,2025-08-16 12h05.39.814170 -0700
-0.5,-15,p2,negs,100,20,20,0,right,0.9809478330425918,None,,,,,,,,,0,20,20,39,40.82931370800361,,,,,,,,,,,,,,,,,,,,,,,,,,,,,,40.81926112493966,40.82931370800361,41.313306665979326,41.313306665979326,41.383683707914315,41.383683707914315,41.39690691593569,41.81499166600406,right,0.9809478330425918,None,,,,,,,,272487,001,2025-08-16_12h05.33.078,tilt_mocs,2024.2.4,None,2025-08-16 12h05.39.814170 -0700
-3.5,-15,m2,negs,100,21,21,0,right,0.9910282499622554,None,,,,,,,,,0,21,21,15,41.82326799992006,,,,,,,,,,,,,,,,,,,,,,,,,,,,,,41.81635475,41.82326799992006,42.31295708299149,42.31295708299149,42.38584129093215,42.38584129093215,42.38584129093215,42.81844954099506,right,0.9910282499622554,None,,,,,,,,272487,001,2025-08-16_12h05.33.078,tilt_mocs,2024.2.4,None,2025-08-16 12h05.39.814170 -0700
-2.5,-15,m1,negs,100,22,22,0,left,3.639237416908145,None,,,,,,,,,0,22,22,1,42.82935895794071,,,,,,,,,,,,,,,,,,,,,,,,,,,,,,42.81941716594156,42.82935895794071,43.31286262499634,43.31286262499634,43.38551208295394,43.38551208295394,43.396389915957116,46.47077499993611,left,3.639237416908145,None,,,,,,,,272487,001,2025-08-16_12h05.33.078,tilt_mocs,2024.2.4,None,2025-08-16 12h05.39.814170 -0700
-0.5,0,p2,noss,0,23,23,0,left,1.4900814160937443,None,,,,,,,,,0,23,23,41,46.47892929101363,,,,,,,,,,,,,,,,,,,,,,,,,,,,,,46.471775249927305,46.47892929101363,46.97117587493267,46.97117587493267,47.04609645798337,47.04609645798337,47.04609645798337,47.980955665931106,left,1.4900814160937443,None,,,,,,,,272487,001,2025-08-16_12h05.33.078,tilt_mocs,2024.2.4,None,2025-08-16 12h05.39.814170 -0700
-3.5,-15,m2,negs,100,24,24,0,left,3.1371182500151917,None,,,,,,,,,0,24,24,13,47.985627125017345,,,,,,,,,,,,,,,,,,,,,,,,,,,,,,47.98206874995958,47.985627125017345,48.478648499934934,48.478648499934934,48.55265695799608,48.55265695799608,48.55265695799608,51.13107258290984,left,3.1371182500151917,None,,,,,,,,272487,001,2025-08-16_12h05.33.078,tilt_mocs,2024.2.4,None,2025-08-16 12h05.39.814170 -0700
0.5,15,m2,poss,100,25,25,0,left,1.1217302080476657,None,,,,,,,,,0,25,25,18,51.13872658298351,,,,,,,,,,,,,,,,,,,,,,,,,,,,,,51.13234862498939,51.13872658298351,51.62946595798712,51.62946595798712,51.70018520799931,51.70018520799931,51.70018520799931,52.26553450000938,left,1.1217302080476657,None,,,,,,,,272487,001,2025-08-16_12h05.33.078,tilt_mocs,2024.2.4,None,2025-08-16 12h05.39.814170 -0700
-2,-15,PSE,negs,100,26,26,0,right,1.006586250034161,None,,,,,,,,,0,26,26,55,52.27451499993913,,,,,,,,,,,,,,,,,,,,,,,,,,,,,,52.26720837,52.27451499993913,52.76276249997318,52.76276249997318,52.835048165987246,52.835048165987246,52.835048165987246,53.289917165995575,right,1.006586250034161,None,,,,,,,,272487,001,2025-08-16_12h05.33.078,tilt_mocs,2024.2.4,None,2025-08-16 12h05.39.814170 -0700
0.5,15,m2,poss,100,27,27,0,left,1.0025476249866188,None,,,,,,,,,0,27,27,14,53.295344582991675,,,,,,,,,,,,,,,,,,,,,,,,,,,,,,53.290990000008605,53.295344582991675,53.78665154101327,53.78665154101327,53.86356883,53.86356883,53.869410458020866,54.308120082947426,left,1.0025476249866188,None,,,,,,,,272487,001,2025-08-16_12h05.33.078,tilt_mocs,2024.2.4,None,2025-08-16 12h05.39.814170 -0700
2.5,15,p1,poss,100,28,28,0,right,0.9520626249723136,None,,,,,,,,,0,28,28,24,54.32959683297668,,,,,,,,,,,,,,,,,,,,,,,,,,,,,,54.309108415967785,54.32959683297668,54.802577624912374,54.802577624912374,54.87959787494037,54.87959787494037,54.885776457958855,55.285257040988654,right,0.9520626249723136,None,,,,,,,,272487,001,2025-08-16_12h05.33.078,tilt_mocs,2024.2.4,None,2025-08-16 12h05.39.814170 -0700
2.5,15,p1,poss,100,29,29,0,right,1.327773333992809,None,,,,,,,,,0,29,29,32,55.29620599991176,,,,,,,,,,,,,,,,,,,,,,,,,,,,,,55.286288624978624,55.29620599991176,55.78612612490542,55.78612612490542,55.863028915948234,55.863028915948234,55.863028915948234,56.63188904093113,right,1.327773333992809,None,,,,,,,,272487,001,2025-08-16_12h05.33.078,tilt_mocs,2024.2.4,None,2025-08-16 12h05.39.814170 -0700
2.5,15,p1,poss,100,30,30,0,right,1.4077831250615418,None,,,,,,,,,0,30,30,26,56.64057254092768,,,,,,,,,,,,,,,,,,,,,,,,,,,,,,56.63352591590956,56.64057254092768,57.1295215,57.1295215,57.20170166599564,57.20170166599564,57.20170166599564,58.05153995798901,right,1.4077831250615418,None,,,,,,,,272487,001,2025-08-16_12h05.33.078,tilt_mocs,2024.2.4,None,2025-08-16 12h05.39.814170 -0700
-1.5,-15,p1,negs,100,31,31,0,right,1.0745548750273883,None,,,,,,,,,0,31,31,31,58.062663374934345,,,,,,,,,,,,,,,,,,,,,,,,,,,,,,58.05253879,58.062663374934345,58.54547191597521,58.54547191597521,58.617194665945135,58.617194665945135,58.62967754,59.14788349997252,right,1.0745548750273883,None,,,,,,,,272487,001,2025-08-16_12h05.33.078,tilt_mocs,2024.2.4,None,2025-08-16 12h05.39.814170 -0700
0.5,15,m2,poss,100,32,32,0,left,1.008896499988623,None,,,,,,,,,0,32,32,20,59.15529245801736,,,,,,,,,,,,,,,,,,,,,,,,,,,,,,59.14887337491382,59.15529245801736,59.645982832997106,59.645982832997106,59.718759250012226,59.718759250012226,59.718759250012226,60.16845870797988,left,1.008896499988623,None,,,,,,,,272487,001,2025-08-16_12h05.33.078,tilt_mocs,2024.2.4,None,2025-08-16 12h05.39.814170 -0700
-0.5,0,p2,noss,0,33,33,0,left,2.342000750009902,None,,,,,,,,,0,33,33,47,60.17860829096753,,,,,,,,,,,,,,,,,,,,,,,,,,,,,,60.16947445797268,60.17860829096753,60.670455540996045,60.670455540996045,60.74611579091288,60.74611579091288,60.74611579091288,62.53202645794954,left,2.342000750009902,None,,,,,,,,272487,001,2025-08-16_12h05.33.078,tilt_mocs,2024.2.4,None,2025-08-16 12h05.39.814170 -0700
3.5,0,p2,noss,0,34,34,0,right,0.9235127500724047,None,,,,,,,,,0,34,34,40,62.540409624925815,,,,,,,,,,,,,,,,,,,,,,,,,,,,,,62.53328162501566,62.540409624925815,63.029663915978745,63.029663915978745,63.10207329096738,63.10207329096738,63.10207329096738,63.473530250019394,right,0.9235127500724047,None,,,,,,,,272487,001,2025-08-16_12h05.33.078,tilt_mocs,2024.2.4,None,2025-08-16 12h05.39.814170 -0700
-3.5,0,m2,noss,0,35,35,0,left,0.9427731250179932,None,,,,,,,,,0,35,35,17,63.478894916013815,,,,,,,,,,,,,,,,,,,,,,,,,,,,,,63.47447725001257,63.478894916013815,63.97228374995757,63.97228374995757,64.04540208296385,64.04540208296385,64.04540208296385,64.43197346,left,0.9427731250179932,None,,,,,,,,272487,001,2025-08-16_12h05.33.078,tilt_mocs,2024.2.4,None,2025-08-16 12h05.39.814170 -0700
2,15,PSE,poss,100,36,36,0,left,1.507182167028077,None,,,,,,,,,0,36,36,48,64.44019541598391,,,,,,,,,,,,,,,,,,,,,,,,,,,,,,64.43357479094993,64.44019541598391,64.92966174997855,64.92966174997855,65.00211045797914,65.00211045797914,65.00211045797914,65.95688429,left,1.507182167028077,None,,,,,,,,272487,001,2025-08-16_12h05.33.078,tilt_mocs,2024.2.4,None,2025-08-16 12h05.39.814170 -0700
1.5,0,m1,noss,0,37,37,0,right,1.015578042017296,None,,,,,,,,,0,37,37,4,65.96225774998311,,,,,,,,,,,,,,,,,,,,,,,,,,,,,,65.95785742,65.96225774998311,66.45519316592254,66.45519316592254,66.52969829097856,66.52969829097856,66.52969829097856,66.98180516599678,right,1.015578042017296,None,,,,,,,,272487,001,2025-08-16_12h05.33.078,tilt_mocs,2024.2.4,None,2025-08-16 12h05.39.814170 -0700
2.5,0,p1,noss,0,38,38,0,right,0.9182796250097454,None,,,,,,,,,0,38,38,34,66.98955166595988,,,,,,,,,,,,,,,,,,,,,,,,,,,,,,66.98286004096735,66.98955166595988,67.47990224999376,67.47990224999376,67.55286941595841,67.55286941595841,67.55286941595841,67.91450495796744,right,0.9182796250097454,None,,,,,,,,272487,001,2025-08-16_12h05.33.078,tilt_mocs,2024.2.4,None,2025-08-16 12h05.39.814170 -0700
-0.5,-15,p2,negs,100,39,39,0,right,1.0087688750354573,None,,,,,,,,,0,39,39,43,67.92239324992988,,,,,,,,,,,,,,,,,,,,,,,,,,,,,,67.91570991592016,67.92239324992988,68.41188345791306,68.41188345791306,68.48557483300101,68.48557483300101,68.48557483300101,68.93749145790935,right,1.0087688750354573,None,,,,,,,,272487,001,2025-08-16_12h05.33.078,tilt_mocs,2024.2.4,None,2025-08-16 12h05.39.814170 -0700
-0.5,-15,p2,negs,100,40,40,0,right,0.9968646659981459,None,,,,,,,,,0,40,40,37,68.94547208293807,,,,,,,,,,,,,,,,,,,,,,,,,,,,,,68.93871833290905,68.94547208293807,69.43818191601895,69.43818191601895,69.51303216593806,69.51303216593806,69.51303216593806,69.94816787494346,right,0.9968646659981459,None,,,,,,,,272487,001,2025-08-16_12h05.33.078,tilt_mocs,2024.2.4,None,2025-08-16 12h05.39.814170 -0700
2,15,PSE,poss,100,41,41,0,left,1.0278948330087587,None,,,,,,,,,0,41,41,50,69.95599487493746,,,,,,,,,,,,,,,,,,,,,,,,,,,,,,69.94914366595913,69.95599487493746,70.44526987499557,70.44526987499557,70.51938354,70.51938354,70.51938354,70.98790754098445,left,1.0278948330087587,None,,,,,,,,272487,001,2025-08-16_12h05.33.078,tilt_mocs,2024.2.4,None,2025-08-16 12h05.39.814170 -0700
3.5,15,p2,poss,100,42,42,0,right,1.0270105419913307,None,,,,,,,,,0,42,42,38,70.99592629098333,,,,,,,,,,,,,,,,,,,,,,,,,,,,,,70.98906804,70.99592629098333,71.48816716601141,71.48816716601141,71.56337170791812,71.56337170791812,71.56337170791812,72.03178362501785,right,1.0270105419913307,None,,,,,,,,272487,001,2025-08-16_12h05.33.078,tilt_mocs,2024.2.4,None,2025-08-16 12h05.39.814170 -0700
2,0,PSE,noss,0,43,43,0,right,0.9632719999644905,None,,,,,,,,,0,43,43,52,72.04018304101191,,,,,,,,,,,,,,,,,,,,,,,,,,,,,,72.03332704096101,72.04018304101191,72.52848058298696,72.52848058298696,72.60270533291623,72.60270533291623,72.60270533291623,73.01502066594549,right,0.9632719999644905,None,,,,,,,,272487,001,2025-08-16_12h05.33.078,tilt_mocs,2024.2.4,None,2025-08-16 12h05.39.814170 -0700
-1.5,-15,p1,negs,100,44,44,0,right,0.9421413749223575,None,,,,,,,,,0,44,44,27,73.02298979100306,,,,,,,,,,,,,,,,,,,,,,,,,,,,,,73.01616299990565,73.02298979100306,73.51186504098587,73.51186504098587,73.58599262498319,73.58599262498319,73.58599262498319,73.96989145793486,right,0.9421413749223575,None,,,,,,,,272487,001,2025-08-16_12h05.33.078,tilt_mocs,2024.2.4,None,2025-08-16 12h05.39.814170 -0700
2,15,PSE,poss,100,45,45,0,right,1.0779964580433443,None,,,,,,,,,0,45,45,54,73.97846037498675,,,,,,,,,,,,,,,,,,,,,,,,,,,,,,73.97090737498365,73.97846037498675,74.47196946,74.47196946,74.54625879100058,74.54625879100058,74.54625879100058,75.06422562501393,right,1.0779964580433443,None,,,,,,,,272487,001,2025-08-16_12h05.33.078,tilt_mocs,2024.2.4,None,2025-08-16 12h05.39.814170 -0700
1.5,15,m1,poss,100,46,46,0,left,2.5764722920721397,None,,,,,,,,,0,46,46,6,75.07124587497674,,,,,,,,,,,,,,,,,,,,,,,,,,,,,,75.06520783295855,75.07124587497674,75.56320454,75.56320454,75.63603462500032,75.63603462500032,75.63603462500032,77.65190629090648,left,2.5764722920721397,None,,,,,,,,272487,001,2025-08-16_12h05.33.078,tilt_mocs,2024.2.4,None,2025-08-16 12h05.39.814170 -0700
-1.5,0,p1,noss,0,47,47,0,left,0.9352502919500694,None,,,,,,,,,0,47,47,35,77.66189870797098,,,,,,,,,,,,,,,,,,,,,,,,,,,,,,77.65287866594736,77.66189870797098,78.14645679097157,78.14645679097157,78.21772341593169,78.21772341593169,78.23001241590828,78.59943441592623,left,0.9352502919500694,None,,,,,,,,272487,001,2025-08-16_12h05.33.078,tilt_mocs,2024.2.4,None,2025-08-16 12h05.39.814170 -0700
-0.5,-15,p2,negs,100,48,48,0,right,0.9400705829029903,None,,,,,,,,,0,48,48,45,78.60720266599674,,,,,,,,,,,,,,,,,,,,,,,,,,,,,,78.60055441595614,78.60720266599674,79.09640283300541,79.09640283300541,79.16934349993244,79.16934349993244,79.16934349993244,79.55684999993537,right,0.9400705829029903,None,,,,,,,,272487,001,2025-08-16_12h05.33.078,tilt_mocs,2024.2.4,None,2025-08-16 12h05.39.814170 -0700
-3.5,-15,m2,negs,100,49,49,0,right,1.3772645420394838,None,,,,,,,,,0,49,49,21,79.56230804,,,,,,,,,,,,,,,,,,,,,,,,,,,,,,79.55784974992275,79.56230804,80.05407483293675,80.05407483293675,80.12950379098766,80.12950379098766,80.13501154095866,80.94829120801296,right,1.3772645420394838,None,,,,,,,,272487,001,2025-08-16_12h05.33.078,tilt_mocs,2024.2.4,None,2025-08-16 12h05.39.814170 -0700
-2.5,0,m1,noss,0,50,50,0,left,0.9767814580118284,None,,,,,,,,,0,50,50,5,80.95693083293736,,,,,,,,,,,,,,,,,,,,,,,,,,,,,,80.94995066593401,80.95693083293736,81.44524162495509,81.44524162495509,81.51970791595522,81.51970791595522,81.51970791595522,81.93724704091437,left,0.9767814580118284,None,,,,,,,,272487,001,2025-08-16_12h05.33.078,tilt_mocs,2024.2.4,None,2025-08-16 12h05.39.814170 -0700
1.5,15,m1,poss,100,51,51,0,left,1.0024960420560092,None,,,,,,,,,0,51,51,8,81.94499454,,,,,,,,,,,,,,,,,,,,,,,,,,,,,,81.93822158291005,81.94499454,82.43887045793235,82.43887045793235,82.51301274995785,82.51301274995785,82.51301274995785,82.95649895793758,left,1.0024960420560092,None,,,,,,,,272487,001,2025-08-16_12h05.33.078,tilt_mocs,2024.2.4,None,2025-08-16 12h05.39.814170 -0700
-3.5,-15,m2,negs,100,52,52,0,left,1.2186357089085504,None,,,,,,,,,0,52,52,19,82.96196904,,,,,,,,,,,,,,,,,,,,,,,,,,,,,,82.95751183,82.96196904,83.45582666597329,83.45582666597329,83.52997058292385,83.52997058292385,83.52997058292385,84.18302666593809,left,1.2186357089085504,None,,,,,,,,272487,001,2025-08-16_12h05.33.078,tilt_mocs,2024.2.4,None,2025-08-16 12h05.39.814170 -0700
-2,-15,PSE,negs,100,53,53,0,right,0.9738840829813853,None,,,,,,,,,0,53,53,49,84.19076371,,,,,,,,,,,,,,,,,,,,,,,,,,,,,,84.18410324992146,84.19076371,84.67951354093384,84.67951354093384,84.75158762501087,84.75158762501087,84.75158762501087,85.17358270799741,right,0.9738840829813853,None,,,,,,,,272487,001,2025-08-16_12h05.33.078,tilt_mocs,2024.2.4,None,2025-08-16 12h05.39.814170 -0700
0.5,0,m2,noss,0,54,54,0,right,1.1370996249606833,None,,,,,,,,,0,54,54,16,85.17904891597573,,,,,,,,,,,,,,,,,,,,,,,,,,,,,,85.17457487492356,85.17904891597573,85.67175270791631,85.67175270791631,85.75320970790926,85.75320970790926,85.75320970790926,86.32088083296549,right,1.1370996249606833,None,,,,,,,,272487,001,2025-08-16_12h05.33.078,tilt_mocs,2024.2.4,None,2025-08-16 12h05.39.814170 -0700
1.5,15,m1,poss,100,55,55,0,left,1.31531625,None,,,,,,,,,0,55,55,2,86.32911837496795,,,,,,,,,,,,,,,,,,,,,,,,,,,,,,86.32191037,86.32911837496795,86.82098558,86.82098558,86.89529466594104,86.89529466594104,86.89529466594104,87.64794887497555,left,1.31531625,None,,,,,,,,272487,001,2025-08-16_12h05.33.078,tilt_mocs,2024.2.4,None,2025-08-16 12h05.39.814170 -0700
-3.5,0,m2,noss,0,56,56,0,left,0.9309641249710694,None,,,,,,,,,0,56,56,23,87.65596404101234,,,,,,,,,,,,,,,,,,,,,,,,,,,,,,87.64898187492508,87.65596404101234,88.14639837492723,88.14639837492723,88.21929070795886,88.21929070795886,88.21929070795886,88.59801154094748,left,0.9309641249710694,None,,,,,,,,272487,001,2025-08-16_12h05.33.078,tilt_mocs,2024.2.4,None,2025-08-16 12h05.39.814170 -0700
2,0,PSE,noss,0,57,57,0,right,0.8847381669329479,None,,,,,,,,,0,57,57,58,88.60579416598193,,,,,,,,,,,,,,,,,,,,,,,,,,,,,,88.59899545798544,88.60579416598193,89.09608283,89.09608283,89.16722516599111,89.16722516599111,89.16722516599111,89.49844504101202,right,0.8847381669329479,None,,,,,,,,272487,001,2025-08-16_12h05.33.078,tilt_mocs,2024.2.4,None,2025-08-16 12h05.39.814170 -0700
-2,-15,PSE,negs,100,58,58,0,right,1.111834792071022,None,,,,,,,,,0,58,58,57,89.50667920801789,,,,,,,,,,,,,,,,,,,,,,,,,,,,,,89.49962816596963,89.50667920801789,89.99615487491246,89.99615487491246,90.06904683297034,90.06904683297034,90.06904683297034,90.62922975001857,right,1.111834792071022,None,,,,,,,,272487,001,2025-08-16_12h05.33.078,tilt_mocs,2024.2.4,None,2025-08-16 12h05.39.814170 -0700
3.5,15,p2,poss,100,59,59,0,right,0.9663196669425815,None,,,,,,,,,0,59,59,44,90.63742874993477,,,,,,,,,,,,,,,,,,,,,,,,,,,,,,90.63023866596632,90.63742874993477,91.12077612499706,91.12077612499706,91.19634529098403,91.19634529098403,91.20200024999212,91.61383591592312,right,0.9663196669425815,None,,,,,,,,272487,001,2025-08-16_12h05.33.078,tilt_mocs,2024.2.4,None,2025-08-16 12h05.39.814170 -0700
,,,,,,,,,,,,,,,,,,,,,,,,,,,,,,,,,,,,,,,,,,,,,,,,,,,,,,,,,,,,,,,,91.61400383291766,91.62257166591007,91.62257166591007,92.81778379098978,right,1.1915448340587318,None,272487,001,2025-08-16_12h05.33.078,tilt_mocs,2024.2.4,None,2025-08-16 12h05.39.814170 -0700