center,surround,type,surr_type,surr_opacity,thisN,thisTrialN,thisRepN,resp.keys,resp.rt,resp.duration,practice_no_time.thisRepN,practice_no_time.thisTrialN,practice_no_time.thisN,practice_no_time.thisIndex,practice_timed.thisRepN,practice_timed.thisTrialN,practice_timed.thisN,practice_timed.thisIndex,trials.thisRepN,trials.thisTrialN,trials.thisN,trials.thisIndex,thisRow.t,notes,instr.started,text_5.started,key_resp_2.started,instr.stopped,key_resp_2.keys,key_resp_2.rt,key_resp_2.duration,instr2.started,text_6.started,key_resp_6.started,instr2.stopped,key_resp_6.keys,key_resp_6.rt,key_resp_6.duration,instr3.started,text_8.started,key_resp_5.started,instr3.stopped,key_resp_5.keys,key_resp_5.rt,key_resp_5.duration,start_instr.started,text_13.started,key_resp_8.started,start_instr.stopped,key_resp_8.keys,key_resp_8.rt,key_resp_8.duration,trial.started,resp.started,surround_grating.started,center_grating.started,surround_grating.stopped,center_grating.stopped,text_4.started,trial.stopped,trials.resp.keys,trials.resp.rt,trials.resp.duration,end.started,text_14.started,key_resp.started,end.stopped,key_resp.keys,key_resp.rt,key_resp.duration,participant,session,date,expName,psychopyVersion,frameRate,expStart,
,,,,,,,,,,,,,,,,,,,,,,,,,0.010616417042911053,0.020625875098630786,0.020625875098630786,2.7154850830556825,space,2.639253417029977,None,,,,,,,,,,,,,,,,,,,,,,,,,,,,,,,,,,,,,,,,591320,001,2025-08-16_12h31.50.944,tilt_mocs,2024.2.4,None,2025-08-16 12h31.58.000728 -0700,
,,,,,,,,,,,,,,,,,,,,,,,,,,,,,,,,2.715573083027266,2.741432083072141,2.741432083072141,2.969149750075303,space,0.22546424996107817,None,,,,,,,,,,,,,,,,,,,,,,,,,,,,,,,,,591320,001,2025-08-16_12h31.50.944,tilt_mocs,2024.2.4,None,2025-08-16 12h31.58.000728 -0700,
,,,,,,,,,,,,,,,,,,,,,,,,,,,,,,,,,,,,,,,2.982532750000246,3.0030487501062453,3.0030487501062453,4.51470058306586,space,1.501909000100568,None,,,,,,,,,,,,,,,,,,,,,,,,,,591320,001,2025-08-16_12h31.50.944,tilt_mocs,2024.2.4,None,2025-08-16 12h31.58.000728 -0700,
,,,,,,,,,,,,,,,,,,,,,,,,,,,,,,,,,,,,,,,,,,,,,,4.521493292064406,4.530436417087913,4.530436417087913,9.097985583008267,space,4.558179125073366,None,,,,,,,,,,,,,,,,,,,591320,001,2025-08-16_12h31.50.944,tilt_mocs,2024.2.4,None,2025-08-16 12h31.58.000728 -0700,
-1.5,-15,p1,negs,100,0,0,0,right,1.279820500058122,None,,,,,,,,,0,0,0,69,9.122041708091274,,,,,,,,,,,,,,,,,,,,,,,,,,,,,,9.114410792011768,9.122041708091274,9.600449750083499,9.600449750083499,9.669374167104252,9.669374167104252,9.669374167104252,10.414450583048165,right,1.279820500058122,None,,,,,,,,591320,001,2025-08-16_12h31.50.944,tilt_mocs,2024.2.4,None,2025-08-16 12h31.58.000728 -0700,
0.5,15,m2,poss,100,1,1,0,left,0.884743791888468,None,,,,,,,,,0,1,1,85,10.57186754210852,,,,,,,,,,,,,,,,,,,,,,,,,,,,,,10.415520625072531,10.57186754210852,10.91333608306013,10.91333608306013,10.985080250073224,10.985080250073224,10.985080250073224,11.464705208083615,left,0.884743791888468,None,,,,,,,,591320,001,2025-08-16_12h31.50.944,tilt_mocs,2024.2.4,None,2025-08-16 12h31.58.000728 -0700,
3.5,0,p2,noss,0,2,2,0,right,0.8849103330867365,None,,,,,,,,,0,2,2,34,11.475421542068943,,,,,,,,,,,,,,,,,,,,,,,,,,,,,,11.465856042108499,11.475421542068943,11.962334958021529,11.962334958021529,12.035719083040021,12.035719083040021,12.035719083040021,12.365466958028264,right,0.8849103330867365,None,,,,,,,,591320,001,2025-08-16_12h31.50.944,tilt_mocs,2024.2.4,None,2025-08-16 12h31.58.000728 -0700,
1.5,15,m1,poss,100,3,3,0,right,1.4240688750287518,None,,,,,,,,,0,3,3,40,12.373619875055738,,,,,,,,,,,,,,,,,,,,,,,,,,,,,,12.36676929204259,12.373619875055738,12.861795542063192,12.861795542063192,12.936516542104073,12.936516542104073,12.936516542104073,13.806958708097227,right,1.4240688750287518,None,,,,,,,,591320,001,2025-08-16_12h31.50.944,tilt_mocs,2024.2.4,None,2025-08-16 12h31.58.000728 -0700,
-2.5,-15,m1,negs,100,4,4,0,right,1.2388280420564115,None,,,,,,,,,0,4,4,102,13.812490667100064,,,,,,,,,,,,,,,,,,,,,,,,,,,,,,13.807992583024316,13.812490667100064,14.304858917021193,14.304858917021193,14.379468333092518,14.379468333092518,14.386106792022474,15.065432625007816,right,1.2388280420564115,None,,,,,,,,591320,001,2025-08-16_12h31.50.944,tilt_mocs,2024.2.4,None,2025-08-16 12h31.58.000728 -0700,
-3.5,-15,m2,negs,100,5,5,0,left,1.1703159590251744,None,,,,,,,,,0,5,5,105,15.073663042043336,,,,,,,,,,,,,,,,,,,,,,,,,,,,,,15.066748625016771,15.073663042043336,15.563393542077392,15.563393542077392,15.633751792018302,15.633751792018302,15.633751792018302,16.248597167083062,left,1.1703159590251744,None,,,,,,,,591320,001,2025-08-16_12h31.50.944,tilt_mocs,2024.2.4,None,2025-08-16 12h31.58.000728 -0700,
3.5,15,p2,poss,100,6,6,0,right,1.1841380420373753,None,,,,,,,,,0,6,6,135,16.257087833015248,,,,,,,,,,,,,,,,,,,,,,,,,,,,,,16.250297042075545,16.257087833015248,16.745343500049785,16.745343500049785,16.817836125032045,16.817836125032045,16.817836125032045,17.447293667006306,right,1.1841380420373753,None,,,,,,,,591320,001,2025-08-16_12h31.50.944,tilt_mocs,2024.2.4,None,2025-08-16 12h31.58.000728 -0700,
1.5,15,m1,poss,100,7,7,0,left,4.358758207992651,None,,,,,,,,,0,7,7,81,17.45512637507636,,,,,,,,,,,,,,,,,,,,,,,,,,,,,,17.448332542087883,17.45512637507636,17.938405417022295,17.938405417022295,18.012816458009183,18.012816458009183,18.017300542094745,21.816590208094567,left,4.358758207992651,None,,,,,,,,591320,001,2025-08-16_12h31.50.944,tilt_mocs,2024.2.4,None,2025-08-16 12h31.58.000728 -0700,
-2.5,-15,m1,negs,100,8,8,0,right,1.2231739170383662,None,,,,,,,,,0,8,8,100,21.824891666998155,,,,,,,,,,,,,,,,,,,,,,,,,,,,,,21.817921542096883,21.824891666998155,22.311945124994963,22.311945124994963,22.386148833087645,22.386148833087645,22.386148833087645,23.051500333007425,right,1.2231739170383662,None,,,,,,,,591320,001,2025-08-16_12h31.50.944,tilt_mocs,2024.2.4,None,2025-08-16 12h31.58.000728 -0700,
-0.5,0,p2,noss,0,9,9,0,left,1.055014666984789,None,,,,,,,,,0,9,9,33,23.062770083080977,,,,,,,,,,,,,,,,,,,,,,,,,,,,,,23.05248845811002,23.062770083080977,23.546168583096005,23.546168583096005,23.618661000044085,23.618661000044085,23.629900833009742,24.132040417054668,left,1.055014666984789,None,,,,,,,,591320,001,2025-08-16_12h31.50.944,tilt_mocs,2024.2.4,None,2025-08-16 12h31.58.000728 -0700,
2.0,15,PSE,poss,100,10,10,0,left,1.1514319580746815,None,,,,,,,,,0,10,10,99,24.140615958021954,,,,,,,,,,,,,,,,,,,,,,,,,,,,,,24.13384304207284,24.140615958021954,24.629629417089745,24.629629417089745,24.70245333306957,24.70245333306957,24.70245333306957,25.298639417043887,left,1.1514319580746815,None,,,,,,,,591320,001,2025-08-16_12h31.50.944,tilt_mocs,2024.2.4,None,2025-08-16 12h31.58.000728 -0700,
-3.5,-15,m2,negs,100,11,11,0,left,1.0296662920154631,None,,,,,,,,,0,11,11,66,25.306721625034697,,,,,,,,,,,,,,,,,,,,,,,,,,,,,,25.299826417001896,25.306721625034697,25.795095667010173,25.795095667010173,25.869355375063606,25.869355375063606,25.869355375063606,26.3470082920976,left,1.0296662920154631,None,,,,,,,,591320,001,2025-08-16_12h31.50.944,tilt_mocs,2024.2.4,None,2025-08-16 12h31.58.000728 -0700,
0.5,15,m2,poss,100,12,12,0,left,0.9739258750341833,None,,,,,,,,,0,12,12,46,26.35298608301673,,,,,,,,,,,,,,,,,,,,,,,,,,,,,,26.34763658302836,26.35298608301673,26.83736858307384,26.83736858307384,26.912862249999307,26.912862249999307,26.918817833065987,27.331909792032093,left,0.9739258750341833,None,,,,,,,,591320,001,2025-08-16_12h31.50.944,tilt_mocs,2024.2.4,None,2025-08-16 12h31.58.000728 -0700,
0.5,15,m2,poss,100,13,13,0,left,0.9377479999093339,None,,,,,,,,,0,13,13,47,27.34016037499532,,,,,,,,,,,,,,,,,,,,,,,,,,,,,,27.33323308301624,27.34016037499532,27.828703208011575,27.828703208011575,27.902955542085692,27.902955542085692,27.902955542085692,28.282070167013444,left,0.9377479999093339,None,,,,,,,,591320,001,2025-08-16_12h31.50.944,tilt_mocs,2024.2.4,None,2025-08-16 12h31.58.000728 -0700,
-1.5,-15,p1,negs,100,14,14,0,right,0.9741217920091003,None,,,,,,,,,0,14,14,8,28.2902925000526,,,,,,,,,,,,,,,,,,,,,,,,,,,,,,28.283612750004977,28.2902925000526,28.77902262506541,28.77902262506541,28.852727792109363,28.852727792109363,28.852727792109363,29.267752000014298,right,0.9741217920091003,None,,,,,,,,591320,001,2025-08-16_12h31.50.944,tilt_mocs,2024.2.4,None,2025-08-16 12h31.58.000728 -0700,
3.5,15,p2,poss,100,15,15,0,right,1.0727042920188978,None,,,,,,,,,0,15,15,52,29.27938591700513,,,,,,,,,,,,,,,,,,,,,,,,,,,,,,29.26844375010114,29.27938591700513,29.762025792035274,29.762025792035274,29.83359883306548,29.83359883306548,29.846494833007455,30.3542621670058,right,1.0727042920188978,None,,,,,,,,591320,001,2025-08-16_12h31.50.944,tilt_mocs,2024.2.4,None,2025-08-16 12h31.58.000728 -0700,
-0.5,-15,p2,negs,100,16,16,0,right,0.943363375030458,None,,,,,,,,,0,16,16,12,30.36213962500915,,,,,,,,,,,,,,,,,,,,,,,,,,,,,,30.35534579202067,30.36213962500915,30.85606425011065,30.85606425011065,30.929957833024673,30.929957833024673,30.929957833024673,31.31512870802544,right,0.943363375030458,None,,,,,,,,591320,001,2025-08-16_12h31.50.944,tilt_mocs,2024.2.4,None,2025-08-16 12h31.58.000728 -0700,
-2.0,0,PSE,noss,0,17,17,0,left,0.9574311670148745,None,,,,,,,,,0,17,17,37,31.32333079201635,,,,,,,,,,,,,,,,,,,,,,,,,,,,,,31.31676250009332,31.32333079201635,31.812047417042777,31.812047417042777,31.885756542091258,31.885756542091258,31.885756542091258,32.28974704199936,left,0.9574311670148745,None,,,,,,,,591320,001,2025-08-16_12h31.50.944,tilt_mocs,2024.2.4,None,2025-08-16 12h31.58.000728 -0700,
-0.5,-15,p2,negs,100,18,18,0,right,0.9361637920374051,None,,,,,,,,,0,18,18,14,32.295169458026066,,,,,,,,,,,,,,,,,,,,,,,,,,,,,,32.291180333006196,32.295169458026066,32.78823270800058,32.78823270800058,32.86322791699786,32.86322791699786,32.86322791699786,33.23606937506702,right,0.9361637920374051,None,,,,,,,,591320,001,2025-08-16_12h31.50.944,tilt_mocs,2024.2.4,None,2025-08-16 12h31.58.000728 -0700,
2.5,15,p1,poss,100,19,19,0,right,1.1616534580243751,None,,,,,,,,,0,19,19,50,33.24506250000559,,,,,,,,,,,,,,,,,,,,,,,,,,,,,,33.23712045804132,33.24506250000559,33.72852141701151,33.72852141701151,33.8022947080899,33.8022947080899,33.81329245807137,34.414403750095516,right,1.1616534580243751,None,,,,,,,,591320,001,2025-08-16_12h31.50.944,tilt_mocs,2024.2.4,None,2025-08-16 12h31.58.000728 -0700,
2.5,15,p1,poss,100,20,20,0,right,1.6264895829372108,None,,,,,,,,,0,20,20,128,34.42192629200872,,,,,,,,,,,,,,,,,,,,,,,,,,,,,,34.41544804209843,34.42192629200872,34.91284504206851,34.91284504206851,34.98577275010757,34.98577275010757,34.98577275010757,36.05208737507928,right,1.6264895829372108,None,,,,,,,,591320,001,2025-08-16_12h31.50.944,tilt_mocs,2024.2.4,None,2025-08-16 12h31.58.000728 -0700,
-0.5,-15,p2,negs,100,21,21,0,right,0.94314545893576,None,,,,,,,,,0,21,21,115,36.06176645809319,,,,,,,,,,,,,,,,,,,,,,,,,,,,,,36.05322325008456,36.06176645809319,36.54584104206879,36.54584104206879,36.618619417073205,36.618619417073205,36.62955104210414,37.014254125067964,right,0.94314545893576,None,,,,,,,,591320,001,2025-08-16_12h31.50.944,tilt_mocs,2024.2.4,None,2025-08-16 12h31.58.000728 -0700,
2.0,15,PSE,poss,100,22,22,0,right,1.0778838330879807,None,,,,,,,,,0,22,22,138,37.022433417034335,,,,,,,,,,,,,,,,,,,,,,,,,,,,,,37.01527708303183,37.022433417034335,37.51203995803371,37.51203995803371,37.58338425005786,37.58338425005786,37.58338425005786,38.103426375077106,right,1.0778838330879807,None,,,,,,,,591320,001,2025-08-16_12h31.50.944,tilt_mocs,2024.2.4,None,2025-08-16 12h31.58.000728 -0700,
2.0,15,PSE,poss,100,23,23,0,right,1.324857624946162,None,,,,,,,,,0,23,23,139,38.111634250031784,,,,,,,,,,,,,,,,,,,,,,,,,,,,,,38.10440558299888,38.111634250031784,38.60481258307118,38.60481258307118,38.67949154204689,38.67949154204689,38.67949154204689,39.44759191700723,right,1.324857624946162,None,,,,,,,,591320,001,2025-08-16_12h31.50.944,tilt_mocs,2024.2.4,None,2025-08-16 12h31.58.000728 -0700,
2.0,15,PSE,poss,100,24,24,0,left,3.5479783749906346,None,,,,,,,,,0,24,24,96,39.45412179210689,,,,,,,,,,,,,,,,,,,,,,,,,,,,,,39.44858175003901,39.45412179210689,39.94608862500172,39.94608862500172,40.01706283306703,40.01706283306703,40.01706283306703,43.00552400003653,left,3.5479783749906346,None,,,,,,,,591320,001,2025-08-16_12h31.50.944,tilt_mocs,2024.2.4,None,2025-08-16 12h31.58.000728 -0700,
3.5,15,p2,poss,100,25,25,0,right,0.9953606670023873,None,,,,,,,,,0,25,25,92,43.01328329206444,,,,,,,,,,,,,,,,,,,,,,,,,,,,,,43.00656712509226,43.01328329206444,43.50190800009295,43.50190800009295,43.578567292075604,43.578567292075604,43.58368000003975,44.01268120808527,right,0.9953606670023873,None,,,,,,,,591320,001,2025-08-16_12h31.50.944,tilt_mocs,2024.2.4,None,2025-08-16 12h31.58.000728 -0700,
-1.5,-15,p1,negs,100,26,26,0,right,0.9381032909732312,None,,,,,,,,,0,26,26,108,44.017382292076945,,,,,,,,,,,,,,,,,,,,,,,,,,,,,,44.01327779202256,44.017382292076945,44.503019708092324,44.503019708092324,44.57992658310104,44.57992658310104,44.585954917012714,44.96577995806001,right,0.9381032909732312,None,,,,,,,,591320,001,2025-08-16_12h31.50.944,tilt_mocs,2024.2.4,None,2025-08-16 12h31.58.000728 -0700,
3.5,15,p2,poss,100,27,27,0,right,1.0140060839476064,None,,,,,,,,,0,27,27,134,44.97350608301349,,,,,,,,,,,,,,,,,,,,,,,,,,,,,,44.96674891700968,44.97350608301349,45.46232591709122,45.46232591709122,45.53400954208337,45.53400954208337,45.53400954208337,45.99804479209706,right,1.0140060839476064,None,,,,,,,,591320,001,2025-08-16_12h31.50.944,tilt_mocs,2024.2.4,None,2025-08-16 12h31.58.000728 -0700,
3.5,15,p2,poss,100,28,28,0,right,0.9580824169097468,None,,,,,,,,,0,28,28,53,46.00587854208425,,,,,,,,,,,,,,,,,,,,,,,,,,,,,,45.999424000037834,46.00587854208425,46.496234958060086,46.496234958060086,46.569152208045125,46.569152208045125,46.569152208045125,46.97297516709659,right,0.9580824169097468,None,,,,,,,,591320,001,2025-08-16_12h31.50.944,tilt_mocs,2024.2.4,None,2025-08-16 12h31.58.000728 -0700,
-3.5,-15,m2,negs,100,29,29,0,right,0.9857286249753088,None,,,,,,,,,0,29,29,6,46.978290208033286,,,,,,,,,,,,,,,,,,,,,,,,,,,,,,46.973924125079066,46.978290208033286,47.468260375084355,47.468260375084355,47.54646866710391,47.54646866710391,47.55077200010419,47.973306750063784,right,0.9857286249753088,None,,,,,,,,591320,001,2025-08-16_12h31.50.944,tilt_mocs,2024.2.4,None,2025-08-16 12h31.58.000728 -0700,
-1.5,-15,p1,negs,100,30,30,0,right,1.0643138330196962,None,,,,,,,,,0,30,30,70,47.978645458002575,,,,,,,,,,,,,,,,,,,,,,,,,,,,,,47.97426808299497,47.978645458002575,48.47065245802514,48.47065245802514,48.54635479208082,48.54635479208082,48.55184691702016,49.04745920805726,right,1.0643138330196962,None,,,,,,,,591320,001,2025-08-16_12h31.50.944,tilt_mocs,2024.2.4,None,2025-08-16 12h31.58.000728 -0700,
2.0,15,PSE,poss,100,31,31,0,left,0.9534025830216706,None,,,,,,,,,0,31,31,137,49.05510358302854,,,,,,,,,,,,,,,,,,,,,,,,,,,,,,49.0484624580713,49.05510358302854,49.546687167021446,49.546687167021446,49.61909095803276,49.61909095803276,49.61909095803276,50.01413125009276,left,0.9534025830216706,None,,,,,,,,591320,001,2025-08-16_12h31.50.944,tilt_mocs,2024.2.4,None,2025-08-16 12h31.58.000728 -0700,
-3.5,-15,m2,negs,100,32,32,0,right,1.6951432910282165,None,,,,,,,,,0,32,32,107,50.02156466699671,,,,,,,,,,,,,,,,,,,,,,,,,,,,,,50.01512650004588,50.02156466699671,50.51290600001812,50.51290600001812,50.58572512504179,50.58572512504179,50.58572512504179,51.720321917091496,right,1.6951432910282165,None,,,,,,,,591320,001,2025-08-16_12h31.50.944,tilt_mocs,2024.2.4,None,2025-08-16 12h31.58.000728 -0700,
-0.5,-15,p2,negs,100,33,33,0,right,0.972360041923821,None,,,,,,,,,0,33,33,75,51.728260875097476,,,,,,,,,,,,,,,,,,,,,,,,,,,,,,51.72134279203601,51.728260875097476,52.22056850010995,52.22056850010995,52.2965054170927,52.2965054170927,52.2965054170927,52.704173708101735,right,0.972360041923821,None,,,,,,,,591320,001,2025-08-16_12h31.50.944,tilt_mocs,2024.2.4,None,2025-08-16 12h31.58.000728 -0700,
-1.5,0,p1,noss,0,34,34,0,left,1.0694196249824017,None,,,,,,,,,0,34,34,29,52.71218995808158,,,,,,,,,,,,,,,,,,,,,,,,,,,,,,52.70530554209836,52.71218995808158,53.20450166705996,53.20450166705996,53.279485667007975,53.279485667007975,53.279485667007975,53.78462025010958,left,1.0694196249824017,None,,,,,,,,591320,001,2025-08-16_12h31.50.944,tilt_mocs,2024.2.4,None,2025-08-16 12h31.58.000728 -0700,
-3.5,-15,m2,negs,100,35,35,0,right,1.8552637500688434,None,,,,,,,,,0,35,35,106,53.796346167102456,,,,,,,,,,,,,,,,,,,,,,,,,,,,,,53.785567292012274,53.796346167102456,54.278435333049856,54.278435333049856,54.35200395807624,54.35200395807624,54.36278054199647,55.65428620809689,right,1.8552637500688434,None,,,,,,,,591320,001,2025-08-16_12h31.50.944,tilt_mocs,2024.2.4,None,2025-08-16 12h31.58.000728 -0700,
-3.5,-15,m2,negs,100,36,36,0,right,1.212295834091492,None,,,,,,,,,0,36,36,65,55.66223550005816,,,,,,,,,,,,,,,,,,,,,,,,,,,,,,55.65525954205077,55.66223550005816,56.15364887507167,56.15364887507167,56.22979125007987,56.22979125007987,56.22979125007987,56.881922250031494,right,1.212295834091492,None,,,,,,,,591320,001,2025-08-16_12h31.50.944,tilt_mocs,2024.2.4,None,2025-08-16 12h31.58.000728 -0700,
-3.5,0,m2,noss,0,37,37,0,left,1.00115804199595,None,,,,,,,,,0,37,37,27,56.89037645806093,,,,,,,,,,,,,,,,,,,,,,,,,,,,,,56.88325637509115,56.89037645806093,57.37847108300775,57.37847108300775,57.4517691670917,57.4517691670917,57.4517691670917,57.898371750023216,left,1.00115804199595,None,,,,,,,,591320,001,2025-08-16_12h31.50.944,tilt_mocs,2024.2.4,None,2025-08-16 12h31.58.000728 -0700,
-0.5,0,p2,noss,0,38,38,0,left,1.2374098330037668,None,,,,,,,,,0,38,38,35,57.906583333038725,,,,,,,,,,,,,,,,,,,,,,,,,,,,,,57.89982437505387,57.906583333038725,58.39556541701313,58.39556541701313,58.46705608302727,58.46705608302727,58.46705608302727,59.14744341711048,left,1.2374098330037668,None,,,,,,,,591320,001,2025-08-16_12h31.50.944,tilt_mocs,2024.2.4,None,2025-08-16 12h31.58.000728 -0700,
-2.0,-15,PSE,negs,100,39,39,0,right,1.031027042074129,None,,,,,,,,,0,39,39,19,59.154113250086084,,,,,,,,,,,,,,,,,,,,,,,,,,,,,,59.148423000006005,59.154113250086084,59.63769200001843,59.63769200001843,59.71314412506763,59.71314412506763,59.718926625093445,60.19737533305306,right,1.031027042074129,None,,,,,,,,591320,001,2025-08-16_12h31.50.944,tilt_mocs,2024.2.4,None,2025-08-16 12h31.58.000728 -0700,
0.5,15,m2,poss,100,40,40,0,left,1.3333940830780193,None,,,,,,,,,0,40,40,84,60.20455529203173,,,,,,,,,,,,,,,,,,,,,,,,,,,,,,60.19835379207507,60.20455529203173,60.68788345810026,60.68788345810026,60.763207792071626,60.763207792071626,60.7690397920087,61.547235333011486,left,1.3333940830780193,None,,,,,,,,591320,001,2025-08-16_12h31.50.944,tilt_mocs,2024.2.4,None,2025-08-16 12h31.58.000728 -0700,
-1.5,-15,p1,negs,100,41,41,0,right,1.0037245830753818,None,,,,,,,,,0,41,41,11,61.5551999170566,,,,,,,,,,,,,,,,,,,,,,,,,,,,,,61.54820837499574,61.5551999170566,62.0462459170958,62.0462459170958,62.116751125082374,62.116751125082374,62.116751125082374,62.56398850004189,right,1.0037245830753818,None,,,,,,,,591320,001,2025-08-16_12h31.50.944,tilt_mocs,2024.2.4,None,2025-08-16 12h31.58.000728 -0700,
-1.5,-15,p1,negs,100,42,42,0,right,1.0199377499520779,None,,,,,,,,,0,42,42,109,62.57165504200384,,,,,,,,,,,,,,,,,,,,,,,,,,,,,,62.564935917034745,62.57165504200384,63.0626980420202,63.0626980420202,63.13288133300375,63.13288133300375,63.13288133300375,63.5975987080019,right,1.0199377499520779,None,,,,,,,,591320,001,2025-08-16_12h31.50.944,tilt_mocs,2024.2.4,None,2025-08-16 12h31.58.000728 -0700,
2.5,15,p1,poss,100,43,43,0,right,0.9920135410502553,None,,,,,,,,,0,43,43,48,63.6052593330387,,,,,,,,,,,,,,,,,,,,,,,,,,,,,,63.5985418750206,63.6052593330387,64.09602495806757,64.09602495806757,64.16719020809978,64.16719020809978,64.16719020809978,64.60681695805397,right,0.9920135410502553,None,,,,,,,,591320,001,2025-08-16_12h31.50.944,tilt_mocs,2024.2.4,None,2025-08-16 12h31.58.000728 -0700,
2.5,15,p1,poss,100,44,44,0,right,1.024472791934386,None,,,,,,,,,0,44,44,131,64.61220079206396,,,,,,,,,,,,,,,,,,,,,,,,,,,,,,64.60777337499894,64.61220079206396,65.10303025005851,65.10303025005851,65.17974637506995,65.17974637506995,65.18387545808218,65.64668212505057,right,1.024472791934386,None,,,,,,,,591320,001,2025-08-16_12h31.50.944,tilt_mocs,2024.2.4,None,2025-08-16 12h31.58.000728 -0700,
2.0,15,PSE,poss,100,45,45,0,right,1.0126185830449685,None,,,,,,,,,0,45,45,57,65.65219266701024,,,,,,,,,,,,,,,,,,,,,,,,,,,,,,65.64765779208392,65.65219266701024,66.13759066700004,66.13759066700004,66.21336904203054,66.21336904203054,66.21925433306023,66.67064845806453,right,1.0126185830449685,None,,,,,,,,591320,001,2025-08-16_12h31.50.944,tilt_mocs,2024.2.4,None,2025-08-16 12h31.58.000728 -0700,
0.5,0,m2,noss,0,46,46,0,right,0.9615072079468518,None,,,,,,,,,0,46,46,24,66.67884979210794,,,,,,,,,,,,,,,,,,,,,,,,,,,,,,66.67174158303533,66.67884979210794,67.16161775006913,67.16161775006913,67.23525041702669,67.23525041702669,67.24647545802873,67.64840704202652,right,0.9615072079468518,None,,,,,,,,591320,001,2025-08-16_12h31.50.944,tilt_mocs,2024.2.4,None,2025-08-16 12h31.58.000728 -0700,
-2.0,-15,PSE,negs,100,47,47,0,right,2.76103258295916,None,,,,,,,,,0,47,47,16,67.65645183308516,,,,,,,,,,,,,,,,,,,,,,,,,,,,,,67.64963070803788,67.65645183308516,68.14569370809477,68.14569370809477,68.21767495805398,68.21767495805398,68.21767495805398,70.42033045808785,right,2.76103258295916,None,,,,,,,,591320,001,2025-08-16_12h31.50.944,tilt_mocs,2024.2.4,None,2025-08-16 12h31.58.000728 -0700,
2.0,15,PSE,poss,100,48,48,0,right,1.0966663749422878,None,,,,,,,,,0,48,48,98,70.428148875013,,,,,,,,,,,,,,,,,,,,,,,,,,,,,,70.42125266708899,70.428148875013,70.92244700004812,70.92244700004812,70.99599737511016,70.99599737511016,70.99599737511016,71.53136400005314,right,1.0966663749422878,None,,,,,,,,591320,001,2025-08-16_12h31.50.944,tilt_mocs,2024.2.4,None,2025-08-16 12h31.58.000728 -0700,
1.5,15,m1,poss,100,49,49,0,right,1.1157585409237072,None,,,,,,,,,0,49,49,80,71.53943995805457,,,,,,,,,,,,,,,,,,,,,,,,,,,,,,71.53237175010145,71.53943995805457,72.02934408304282,72.02934408304282,72.10146733303554,72.10146733303554,72.10146733303554,72.66482458310202,right,1.1157585409237072,None,,,,,,,,591320,001,2025-08-16_12h31.50.944,tilt_mocs,2024.2.4,None,2025-08-16 12h31.58.000728 -0700,
-2.0,-15,PSE,negs,100,50,50,0,right,0.9817792919930071,None,,,,,,,,,0,50,50,76,72.67276650003623,,,,,,,,,,,,,,,,,,,,,,,,,,,,,,72.66611216706224,72.67276650003623,73.16220216709189,73.16220216709189,73.2343179580057,73.2343179580057,73.2343179580057,73.66511270799674,right,0.9817792919930071,None,,,,,,,,591320,001,2025-08-16_12h31.50.944,tilt_mocs,2024.2.4,None,2025-08-16 12h31.58.000728 -0700,
-1.5,-15,p1,negs,100,51,51,0,right,1.040030459058471,None,,,,,,,,,0,51,51,10,73.67372275004163,,,,,,,,,,,,,,,,,,,,,,,,,,,,,,73.66683708305936,73.67372275004163,74.16173145803623,74.16173145803623,74.23553525004536,74.23553525004536,74.23553525004536,74.7236656669993,right,1.040030459058471,None,,,,,,,,591320,001,2025-08-16_12h31.50.944,tilt_mocs,2024.2.4,None,2025-08-16 12h31.58.000728 -0700,
2.0,15,PSE,poss,100,52,52,0,right,1.1360017500119284,None,,,,,,,,,0,52,52,58,74.72910225007217,,,,,,,,,,,,,,,,,,,,,,,,,,,,,,74.72465408302378,74.72910225007217,75.22068629204296,75.22068629204296,75.29644320800435,75.29644320800435,75.30229183309712,75.87065270810854,right,1.1360017500119284,None,,,,,,,,591320,001,2025-08-16_12h31.50.944,tilt_mocs,2024.2.4,None,2025-08-16 12h31.58.000728 -0700,
3.5,15,p2,poss,100,53,53,0,right,1.0020278750453144,None,,,,,,,,,0,53,53,132,75.878436292056,,,,,,,,,,,,,,,,,,,,,,,,,,,,,,75.87165216705762,75.878436292056,76.37125708302483,76.37125708302483,76.44614591705613,76.44614591705613,76.44614591705613,76.8899692920968,right,1.0020278750453144,None,,,,,,,,591320,001,2025-08-16_12h31.50.944,tilt_mocs,2024.2.4,None,2025-08-16 12h31.58.000728 -0700,
-1.5,-15,p1,negs,100,54,54,0,right,1.0017508750315756,None,,,,,,,,,0,54,54,68,76.8954522080021,,,,,,,,,,,,,,,,,,,,,,,,,,,,,,76.89096654206514,76.8954522080021,77.38770029204898,77.38770029204898,77.46298145805486,77.46298145805486,77.46694045804907,77.90692220802885,right,1.0017508750315756,None,,,,,,,,591320,001,2025-08-16_12h31.50.944,tilt_mocs,2024.2.4,None,2025-08-16 12h31.58.000728 -0700,
-1.5,-15,p1,negs,100,55,55,0,right,1.287305457983166,None,,,,,,,,,0,55,55,110,77.91237829206511,,,,,,,,,,,,,,,,,,,,,,,,,,,,,,77.90788683306891,77.91237829206511,78.4033181250561,78.4033181250561,78.47947633301374,78.47947633301374,78.48584041709546,79.20282491703983,right,1.287305457983166,None,,,,,,,,591320,001,2025-08-16_12h31.50.944,tilt_mocs,2024.2.4,None,2025-08-16 12h31.58.000728 -0700,
2.5,15,p1,poss,100,56,56,0,right,1.2638841250445694,None,,,,,,,,,0,56,56,90,79.21156120800879,,,,,,,,,,,,,,,,,,,,,,,,,,,,,,79.20380474999547,79.21156120800879,79.70517629210372,79.70517629210372,79.77923170803115,79.77923170803115,79.77923170803115,80.4804660420632,right,1.2638841250445694,None,,,,,,,,591320,001,2025-08-16_12h31.50.944,tilt_mocs,2024.2.4,None,2025-08-16 12h31.58.000728 -0700,
-2.5,0,m1,noss,0,57,57,0,left,0.995900291018188,None,,,,,,,,,0,57,57,21,80.48779691709206,,,,,,,,,,,,,,,,,,,,,,,,,,,,,,80.4814332081005,80.48779691709206,80.97847737499978,80.97847737499978,81.05105516710319,81.05105516710319,81.05105516710319,81.49640920804814,left,0.995900291018188,None,,,,,,,,591320,001,2025-08-16_12h31.50.944,tilt_mocs,2024.2.4,None,2025-08-16 12h31.58.000728 -0700,
2.5,15,p1,poss,100,58,58,0,right,1.1433644999051467,None,,,,,,,,,0,58,58,51,81.50424037501216,,,,,,,,,,,,,,,,,,,,,,,,,,,,,,81.49719779205043,81.50424037501216,81.98771725001279,81.98771725001279,82.0627117920667,82.0627117920667,82.06900929205585,82.65360979200341,right,1.1433644999051467,None,,,,,,,,591320,001,2025-08-16_12h31.50.944,tilt_mocs,2024.2.4,None,2025-08-16 12h31.58.000728 -0700,
1.5,15,m1,poss,100,59,59,0,left,3.7082698749145493,None,,,,,,,,,0,59,59,120,82.66174645803403,,,,,,,,,,,,,,,,,,,,,,,,,,,,,,82.6547711250605,82.66174645803403,83.15302208310459,83.15302208310459,83.22968791704625,83.22968791704625,83.22968791704625,86.38081304205116,left,3.7082698749145493,None,,,,,,,,591320,001,2025-08-16_12h31.50.944,tilt_mocs,2024.2.4,None,2025-08-16 12h31.58.000728 -0700,
1.5,15,m1,poss,100,60,60,0,left,1.2385182499419898,None,,,,,,,,,0,60,60,83,86.38771391706541,,,,,,,,,,,,,,,,,,,,,,,,,,,,,,86.38186562503688,86.38771391706541,86.87830737500917,86.87830737500917,86.95301841699984,86.95301841699984,86.95301841699984,87.63181258307304,left,1.2385182499419898,None,,,,,,,,591320,001,2025-08-16_12h31.50.944,tilt_mocs,2024.2.4,None,2025-08-16 12h31.58.000728 -0700,
-0.5,-15,p2,negs,100,61,61,0,right,1.0076285830000415,None,,,,,,,,,0,61,61,113,87.6404056251049,,,,,,,,,,,,,,,,,,,,,,,,,,,,,,87.63348875008523,87.6404056251049,88.12889620801434,88.12889620801434,88.20191316702403,88.20191316702403,88.20191316702403,88.65385008300655,right,1.0076285830000415,None,,,,,,,,591320,001,2025-08-16_12h31.50.944,tilt_mocs,2024.2.4,None,2025-08-16 12h31.58.000728 -0700,
-2.5,-15,m1,negs,100,62,62,0,right,1.1021012919954956,None,,,,,,,,,0,62,62,61,88.66190208308399,,,,,,,,,,,,,,,,,,,,,,,,,,,,,,88.65488400007598,88.66190208308399,89.15265970805194,89.15265970805194,89.2296633750666,89.2296633750666,89.2296633750666,89.7739767919993,right,1.1021012919954956,None,,,,,,,,591320,001,2025-08-16_12h31.50.944,tilt_mocs,2024.2.4,None,2025-08-16 12h31.58.000728 -0700,
-2.5,0,m1,noss,0,63,63,0,left,0.9942178750643507,None,,,,,,,,,0,63,63,23,89.77938495809212,,,,,,,,,,,,,,,,,,,,,,,,,,,,,,89.77495316707063,89.77938495809212,90.26965008303523,90.26965008303523,90.34639554203022,90.34639554203022,90.3521864170907,90.78198587510269,left,0.9942178750643507,None,,,,,,,,591320,001,2025-08-16_12h31.50.944,tilt_mocs,2024.2.4,None,2025-08-16 12h31.58.000728 -0700,
2.0,15,PSE,poss,100,64,64,0,right,1.231391916051507,None,,,,,,,,,0,64,64,136,90.79110562510323,,,,,,,,,,,,,,,,,,,,,,,,,,,,,,90.7838979579974,90.79110562510323,91.2797771251062,91.2797771251062,91.35228854208253,91.35228854208253,91.35228854208253,92.03056437510531,right,1.231391916051507,None,,,,,,,,591320,001,2025-08-16_12h31.50.944,tilt_mocs,2024.2.4,None,2025-08-16 12h31.58.000728 -0700,
-2.5,-15,m1,negs,100,65,65,0,right,1.0639072919730097,None,,,,,,,,,0,65,65,3,92.03810387500562,,,,,,,,,,,,,,,,,,,,,,,,,,,,,,92.03163804206997,92.03810387500562,92.5194172920892,92.5194172920892,92.59607654204592,92.59607654204592,92.60202420805581,93.10505041701254,right,1.0639072919730097,None,,,,,,,,591320,001,2025-08-16_12h31.50.944,tilt_mocs,2024.2.4,None,2025-08-16 12h31.58.000728 -0700,
3.5,15,p2,poss,100,66,66,0,right,1.0290195420384407,None,,,,,,,,,0,66,66,55,93.11261470802128,,,,,,,,,,,,,,,,,,,,,,,,,,,,,,93.10597987507936,93.11261470802128,93.60400804202072,93.60400804202072,93.67920583300292,93.67920583300292,93.67920583300292,94.14718479209114,right,1.0290195420384407,None,,,,,,,,591320,001,2025-08-16_12h31.50.944,tilt_mocs,2024.2.4,None,2025-08-16 12h31.58.000728 -0700,
0.5,15,m2,poss,100,67,67,0,left,1.0379777089692652,None,,,,,,,,,0,67,67,124,94.15361862501595,,,,,,,,,,,,,,,,,,,,,,,,,,,,,,94.14814537507482,94.15361862501595,94.64495500002522,94.64495500002522,94.71860729204491,94.71860729204491,94.71860729204491,95.19727362506092,left,1.0379777089692652,None,,,,,,,,591320,001,2025-08-16_12h31.50.944,tilt_mocs,2024.2.4,None,2025-08-16 12h31.58.000728 -0700,
-0.5,-15,p2,negs,100,68,68,0,right,0.963138792081736,None,,,,,,,,,0,68,68,72,95.20521358307451,,,,,,,,,,,,,,,,,,,,,,,,,,,,,,95.19828350003809,95.20521358307451,95.69548175006639,95.69548175006639,95.76896204205696,95.76896204205696,95.76896204205696,96.1810031250352,right,0.963138792081736,None,,,,,,,,591320,001,2025-08-16_12h31.50.944,tilt_mocs,2024.2.4,None,2025-08-16 12h31.58.000728 -0700,
-1.5,-15,p1,negs,100,69,69,0,right,1.005120874964632,None,,,,,,,,,0,69,69,111,96.18823595810682,,,,,,,,,,,,,,,,,,,,,,,,,,,,,,96.18197462509852,96.18823595810682,96.67984691704623,96.67984691704623,96.75262320809998,96.75262320809998,96.75262320809998,97.19761324999854,right,1.005120874964632,None,,,,,,,,591320,001,2025-08-16_12h31.50.944,tilt_mocs,2024.2.4,None,2025-08-16 12h31.58.000728 -0700,
-2.0,-15,PSE,negs,100,70,70,0,right,1.0277748750522733,None,,,,,,,,,0,70,70,79,97.20495058305096,,,,,,,,,,,,,,,,,,,,,,,,,,,,,,97.19855187507346,97.20495058305096,97.69502237509005,97.69502237509005,97.76814175001346,97.76814175001346,97.76814175001346,98.23760200000834,right,1.0277748750522733,None,,,,,,,,591320,001,2025-08-16_12h31.50.944,tilt_mocs,2024.2.4,None,2025-08-16 12h31.58.000728 -0700,
-2.0,-15,PSE,negs,100,71,71,0,right,1.0069182079751045,None,,,,,,,,,0,71,71,78,98.24523958307691,,,,,,,,,,,,,,,,,,,,,,,,,,,,,,98.23859050008468,98.24523958307691,98.73778045806102,98.73778045806102,98.8126777500147,98.8126777500147,98.8126777500147,99.25406237505376,right,1.0069182079751045,None,,,,,,,,591320,001,2025-08-16_12h31.50.944,tilt_mocs,2024.2.4,None,2025-08-16 12h31.58.000728 -0700,
3.5,15,p2,poss,100,72,72,0,right,1.0102017080644146,None,,,,,,,,,0,72,72,133,99.26188020803966,,,,,,,,,,,,,,,,,,,,,,,,,,,,,,99.25508187501691,99.26188020803966,99.75442487502005,99.75442487502005,99.82932704209816,99.82932704209816,99.82932704209816,100.2814483330585,right,1.0102017080644146,None,,,,,,,,591320,001,2025-08-16_12h31.50.944,tilt_mocs,2024.2.4,None,2025-08-16 12h31.58.000728 -0700,
-2.0,0,PSE,noss,0,73,73,0,left,0.9618077499326319,None,,,,,,,,,0,73,73,39,100.28948291705456,,,,,,,,,,,,,,,,,,,,,,,,,,,,,,100.28253512503579,100.28948291705456,100.77972058299929,100.77972058299929,100.85229191707913,100.85229191707913,100.85229191707913,101.2536742920056,left,0.9618077499326319,None,,,,,,,,591320,001,2025-08-16_12h31.50.944,tilt_mocs,2024.2.4,None,2025-08-16 12h31.58.000728 -0700,
2.5,0,p1,noss,0,74,74,0,right,0.9798385419417173,None,,,,,,,,,0,74,74,28,101.26166316703893,,,,,,,,,,,,,,,,,,,,,,,,,,,,,,101.25485987507273,101.26166316703893,101.75369775004219,101.75369775004219,101.82935766701121,101.82935766701121,101.82935766701121,102.24858925002627,right,0.9798385419417173,None,,,,,,,,591320,001,2025-08-16_12h31.50.944,tilt_mocs,2024.2.4,None,2025-08-16 12h31.58.000728 -0700,
-0.5,-15,p2,negs,100,75,75,0,right,0.987831374979578,None,,,,,,,,,0,75,75,114,102.25646620802581,,,,,,,,,,,,,,,,,,,,,,,,,,,,,,102.24991708307061,102.25646620802581,102.74494708306156,102.74494708306156,102.8188476250507,102.8188476250507,102.8188476250507,103.24797895806842,right,0.987831374979578,None,,,,,,,,591320,001,2025-08-16_12h31.50.944,tilt_mocs,2024.2.4,None,2025-08-16 12h31.58.000728 -0700,
1.5,0,m1,noss,0,76,76,0,right,0.9685037919552997,None,,,,,,,,,0,76,76,20,103.25602620805148,,,,,,,,,,,,,,,,,,,,,,,,,,,,,,103.2490246250527,103.25602620805148,103.74504858301952,103.74504858301952,103.81694929208606,103.81694929208606,103.81694929208606,104.2301828750642,right,0.9685037919552997,None,,,,,,,,591320,001,2025-08-16_12h31.50.944,tilt_mocs,2024.2.4,None,2025-08-16 12h31.58.000728 -0700,
2.0,15,PSE,poss,100,77,77,0,left,1.1031362089561298,None,,,,,,,,,0,77,77,97,104.2368369580945,,,,,,,,,,,,,,,,,,,,,,,,,,,,,,104.23118795803748,104.2368369580945,104.72054550005123,104.72054550005123,104.79610966704786,104.79610966704786,104.80172195809428,105.34876512503251,left,1.1031362089561298,None,,,,,,,,591320,001,2025-08-16_12h31.50.944,tilt_mocs,2024.2.4,None,2025-08-16 12h31.58.000728 -0700,
2.0,0,PSE,noss,0,78,78,0,right,0.9604695830494165,None,,,,,,,,,0,78,78,36,105.35695587506052,,,,,,,,,,,,,,,,,,,,,,,,,,,,,,105.35017087508459,105.35695587506052,105.84502624999732,105.84502624999732,105.91883037507068,105.91883037507068,105.91883037507068,106.32021066709422,right,0.9604695830494165,None,,,,,,,,591320,001,2025-08-16_12h31.50.944,tilt_mocs,2024.2.4,None,2025-08-16 12h31.58.000728 -0700,
-3.5,0,m2,noss,0,79,79,0,left,0.9687911249930039,None,,,,,,,,,0,79,79,25,106.32829679199494,,,,,,,,,,,,,,,,,,,,,,,,,,,,,,106.32119291706476,106.32829679199494,106.82134100003168,106.82134100003168,106.89642091700807,106.89642091700807,106.89642091700807,107.30669008300174,left,0.9687911249930039,None,,,,,,,,591320,001,2025-08-16_12h31.50.944,tilt_mocs,2024.2.4,None,2025-08-16 12h31.58.000728 -0700,
-0.5,-15,p2,negs,100,80,80,0,right,1.0565971669275314,None,,,,,,,,,0,80,80,73,107.31217591708992,,,,,,,,,,,,,,,,,,,,,,,,,,,,,,107.30774516705424,107.31217591708992,107.8043668330647,107.8043668330647,107.8797307080822,107.8797307080822,107.88576566707343,108.3791118330555,right,1.0565971669275314,None,,,,,,,,591320,001,2025-08-16_12h31.50.944,tilt_mocs,2024.2.4,None,2025-08-16 12h31.58.000728 -0700,
3.5,15,p2,poss,100,81,81,0,right,1.1287576670292765,None,,,,,,,,,0,81,81,93,108.38721566705499,,,,,,,,,,,,,,,,,,,,,,,,,,,,,,108.3800592920743,108.38721566705499,108.87162270804401,108.87162270804401,108.94629283307586,108.94629283307586,108.95230450003874,109.51827575010248,right,1.1287576670292765,None,,,,,,,,591320,001,2025-08-16_12h31.50.944,tilt_mocs,2024.2.4,None,2025-08-16 12h31.58.000728 -0700,
-0.5,-15,p2,negs,100,82,82,0,right,0.9619212499819696,None,,,,,,,,,0,82,82,15,109.52842491702177,,,,,,,,,,,,,,,,,,,,,,,,,,,,,,109.51922137499787,109.52842491702177,110.01170995808206,110.01170995808206,110.08341650001239,110.08341650001239,110.09592283307575,110.49806095811073,right,0.9619212499819696,None,,,,,,,,591320,001,2025-08-16_12h31.50.944,tilt_mocs,2024.2.4,None,2025-08-16 12h31.58.000728 -0700,
-3.5,-15,m2,negs,100,83,83,0,left,1.136883792001754,None,,,,,,,,,0,83,83,5,110.50560758309439,,,,,,,,,,,,,,,,,,,,,,,,,,,,,,110.49946420802735,110.50560758309439,110.99490287504159,110.99490287504159,111.06915645801928,111.06915645801928,111.06915645801928,111.64793945802376,left,1.136883792001754,None,,,,,,,,591320,001,2025-08-16_12h31.50.944,tilt_mocs,2024.2.4,None,2025-08-16 12h31.58.000728 -0700,
-1.5,-15,p1,negs,100,84,84,0,right,0.9593636660138145,None,,,,,,,,,0,84,84,71,111.65520833304618,,,,,,,,,,,,,,,,,,,,,,,,,,,,,,111.64890629204456,111.65520833304618,112.14576875010971,112.14576875010971,112.21605404210277,112.21605404210277,112.21605404210277,112.62060095800553,right,0.9593636660138145,None,,,,,,,,591320,001,2025-08-16_12h31.50.944,tilt_mocs,2024.2.4,None,2025-08-16 12h31.58.000728 -0700,
1.5,15,m1,poss,100,85,85,0,left,1.0895888330414891,None,,,,,,,,,0,85,85,43,112.62846575002186,,,,,,,,,,,,,,,,,,,,,,,,,,,,,,112.62156545801554,112.62846575002186,113.12013687507715,113.12013687507715,113.1965183330467,113.1965183330467,113.1965183330467,113.72027112508658,left,1.0895888330414891,None,,,,,,,,591320,001,2025-08-16_12h31.50.944,tilt_mocs,2024.2.4,None,2025-08-16 12h31.58.000728 -0700,
3.5,15,p2,poss,100,86,86,0,right,1.0742032079724595,None,,,,,,,,,0,86,86,95,113.72806008299813,,,,,,,,,,,,,,,,,,,,,,,,,,,,,,113.72126579203177,113.72806008299813,114.22058250010014,114.22058250010014,114.29622895806096,114.29622895806096,114.29622895806096,114.80455850006547,right,1.0742032079724595,None,,,,,,,,591320,001,2025-08-16_12h31.50.944,tilt_mocs,2024.2.4,None,2025-08-16 12h31.58.000728 -0700,
-2.5,-15,m1,negs,100,87,87,0,right,1.9957997089950368,None,,,,,,,,,0,87,87,2,114.81234220799524,,,,,,,,,,,,,,,,,,,,,,,,,,,,,,114.80565162503626,114.81234220799524,115.30536283308174,115.30536283308174,115.38596858305391,115.38596858305391,115.38596858305391,116.81425595807377,right,1.9957997089950368,None,,,,,,,,591320,001,2025-08-16_12h31.50.944,tilt_mocs,2024.2.4,None,2025-08-16 12h31.58.000728 -0700,
-3.5,-15,m2,negs,100,88,88,0,left,1.0488038749899715,None,,,,,,,,,0,88,88,64,116.82207387499511,,,,,,,,,,,,,,,,,,,,,,,,,,,,,,116.81525708304252,116.82207387499511,117.31189962499775,117.31189962499775,117.38600970804691,117.38600970804691,117.38600970804691,117.88166412501596,left,1.0488038749899715,None,,,,,,,,591320,001,2025-08-16_12h31.50.944,tilt_mocs,2024.2.4,None,2025-08-16 12h31.58.000728 -0700,
0.5,15,m2,poss,100,89,89,0,left,0.995619791909121,None,,,,,,,,,0,89,89,44,117.89013883308508,,,,,,,,,,,,,,,,,,,,,,,,,,,,,,117.88317991700023,117.89013883308508,118.3788189580664,118.3788189580664,118.4521764999954,118.4521764999954,118.4521764999954,118.88774195802398,left,0.995619791909121,None,,,,,,,,591320,001,2025-08-16_12h31.50.944,tilt_mocs,2024.2.4,None,2025-08-16 12h31.58.000728 -0700,
-2.0,-15,PSE,negs,100,90,90,0,right,1.1377306249924004,None,,,,,,,,,0,90,90,119,118.89578270807397,,,,,,,,,,,,,,,,,,,,,,,,,,,,,,118.88884100003634,118.89578270807397,119.3871139580151,119.3871139580151,119.46295954205561,119.46295954205561,119.46295954205561,120.03645758307539,right,1.1377306249924004,None,,,,,,,,591320,001,2025-08-16_12h31.50.944,tilt_mocs,2024.2.4,None,2025-08-16 12h31.58.000728 -0700,
2.5,15,p1,poss,100,91,91,0,left,5.896412999951281,None,,,,,,,,,0,91,91,89,120.04476408299524,,,,,,,,,,,,,,,,,,,,,,,,,,,,,,120.03744158300105,120.04476408299524,120.53613641706761,120.53613641706761,120.61275295808446,120.61275295808446,120.61275295808446,125.9488755830098,left,5.896412999951281,None,,,,,,,,591320,001,2025-08-16_12h31.50.944,tilt_mocs,2024.2.4,None,2025-08-16 12h31.58.000728 -0700,
0.5,15,m2,poss,100,92,92,0,left,1.0700547499582171,None,,,,,,,,,0,92,92,45,125.95705987501424,,,,,,,,,,,,,,,,,,,,,,,,,,,,,,125.95012329204474,125.95705987501424,126.44584704202134,126.44584704202134,126.51662266708445,126.51662266708445,126.51662266708445,127.03059837501496,left,1.0700547499582171,None,,,,,,,,591320,001,2025-08-16_12h31.50.944,tilt_mocs,2024.2.4,None,2025-08-16 12h31.58.000728 -0700,
2.5,15,p1,poss,100,93,93,0,right,1.183303541969508,None,,,,,,,,,0,93,93,88,127.03520329203457,,,,,,,,,,,,,,,,,,,,,,,,,,,,,,127.03160170803312,127.03520329203457,127.52953670802526,127.52953670802526,127.60169987508561,127.60169987508561,127.60169987508561,128.22062891710084,right,1.183303541969508,None,,,,,,,,591320,001,2025-08-16_12h31.50.944,tilt_mocs,2024.2.4,None,2025-08-16 12h31.58.000728 -0700,
-2.0,-15,PSE,negs,100,94,94,0,right,1.0318788749864325,None,,,,,,,,,0,94,94,17,128.22863283311017,,,,,,,,,,,,,,,,,,,,,,,,,,,,,,128.22168170800433,128.22863283311017,128.72109220805578,128.72109220805578,128.79587600007653,128.79587600007653,128.79587600007653,129.26480766700115,right,1.0318788749864325,None,,,,,,,,591320,001,2025-08-16_12h31.50.944,tilt_mocs,2024.2.4,None,2025-08-16 12h31.58.000728 -0700,
3.5,15,p2,poss,100,95,95,0,right,1.1955641669919714,None,,,,,,,,,0,95,95,94,129.27285337506328,,,,,,,,,,,,,,,,,,,,,,,,,,,,,,129.2660496670287,129.27285337506328,129.76304025005084,129.76304025005084,129.8356417500181,129.8356417500181,129.8356417500181,130.4808887920808,right,1.1955641669919714,None,,,,,,,,591320,001,2025-08-16_12h31.50.944,tilt_mocs,2024.2.4,None,2025-08-16 12h31.58.000728 -0700,
-2.0,-15,PSE,negs,100,96,96,0,right,2.7517913329647854,None,,,,,,,,,0,96,96,117,130.4881184170954,,,,,,,,,,,,,,,,,,,,,,,,,,,,,,130.48189258307684,130.4881184170954,130.97815583308693,130.97815583308693,131.05051966710016,131.05051966710016,131.05051966710016,133.24847362504806,right,2.7517913329647854,None,,,,,,,,591320,001,2025-08-16_12h31.50.944,tilt_mocs,2024.2.4,None,2025-08-16 12h31.58.000728 -0700,
0.5,15,m2,poss,100,97,97,0,left,0.976272042025812,None,,,,,,,,,0,97,97,127,133.25754145800602,,,,,,,,,,,,,,,,,,,,,,,,,,,,,,133.25034745805897,133.25754145800602,133.7450922500575,133.7450922500575,133.81868383300025,133.81868383300025,133.81868383300025,134.23704454209656,left,0.976272042025812,None,,,,,,,,591320,001,2025-08-16_12h31.50.944,tilt_mocs,2024.2.4,None,2025-08-16 12h31.58.000728 -0700,
2.5,15,p1,poss,100,98,98,0,left,1.0352912090020254,None,,,,,,,,,0,98,98,91,134.24513437505811,,,,,,,,,,,,,,,,,,,,,,,,,,,,,,134.23820458306,134.24513437505811,134.7379261670867,134.7379261670867,134.81304066709708,134.81304066709708,134.81304066709708,135.2902677920647,left,1.0352912090020254,None,,,,,,,,591320,001,2025-08-16_12h31.50.944,tilt_mocs,2024.2.4,None,2025-08-16 12h31.58.000728 -0700,
-3.5,-15,m2,negs,100,99,99,0,right,1.1226171670714393,None,,,,,,,,,0,99,99,7,135.2957608330762,,,,,,,,,,,,,,,,,,,,,,,,,,,,,,135.29123600001913,135.2957608330762,135.78815012506675,135.78815012506675,135.8626737500308,135.8626737500308,135.86914766707923,136.42039533308707,right,1.1226171670714393,None,,,,,,,,591320,001,2025-08-16_12h31.50.944,tilt_mocs,2024.2.4,None,2025-08-16 12h31.58.000728 -0700,
-1.5,-15,p1,negs,100,100,100,0,right,1.010526292026043,None,,,,,,,,,0,100,100,9,136.42812966706697,,,,,,,,,,,,,,,,,,,,,,,,,,,,,,136.42135904205497,136.42812966706697,136.9215250830166,136.9215250830166,136.99599233304616,136.99599233304616,136.99599233304616,137.4468407080276,right,1.010526292026043,None,,,,,,,,591320,001,2025-08-16_12h31.50.944,tilt_mocs,2024.2.4,None,2025-08-16 12h31.58.000728 -0700,
-2.5,-15,m1,negs,100,101,101,0,right,1.0673456660006195,None,,,,,,,,,0,101,101,101,137.45352058310527,,,,,,,,,,,,,,,,,,,,,,,,,,,,,,137.44777483306825,137.45352058310527,137.93757308309432,137.93757308309432,138.01243716699537,138.01243716699537,138.0164203750901,138.53073587501422,right,1.0673456660006195,None,,,,,,,,591320,001,2025-08-16_12h31.50.944,tilt_mocs,2024.2.4,None,2025-08-16 12h31.58.000728 -0700,
-2.5,-15,m1,negs,100,102,102,0,left,1.0754990000277758,None,,,,,,,,,0,102,102,62,138.53839783300646,,,,,,,,,,,,,,,,,,,,,,,,,,,,,,138.5316906250082,138.53839783300646,139.02920670807362,139.02920670807362,139.10214645799715,139.10214645799715,139.10214645799715,139.62406675005332,left,1.0754990000277758,None,,,,,,,,591320,001,2025-08-16_12h31.50.944,tilt_mocs,2024.2.4,None,2025-08-16 12h31.58.000728 -0700,
-0.5,-15,p2,negs,100,103,103,0,right,0.9580415829550475,None,,,,,,,,,0,103,103,112,139.62933891708963,,,,,,,,,,,,,,,,,,,,,,,,,,,,,,139.62504479207564,139.62933891708963,140.11932879209053,140.11932879209053,140.19625187502243,140.19625187502243,140.20209129201248,140.598260375089,right,0.9580415829550475,None,,,,,,,,591320,001,2025-08-16_12h31.50.944,tilt_mocs,2024.2.4,None,2025-08-16 12h31.58.000728 -0700,
3.5,0,p2,noss,0,104,104,0,right,0.9687030840432271,None,,,,,,,,,0,104,104,32,140.60710787505377,,,,,,,,,,,,,,,,,,,,,,,,,,,,,,140.60022091702558,140.60710787505377,141.0958274580771,141.0958274580771,141.16679100005422,141.16679100005422,141.16679100005422,141.5811497500399,right,0.9687030840432271,None,,,,,,,,591320,001,2025-08-16_12h31.50.944,tilt_mocs,2024.2.4,None,2025-08-16 12h31.58.000728 -0700,
2.5,15,p1,poss,100,105,105,0,right,1.3216202500043437,None,,,,,,,,,0,105,105,130,141.5885590830585,,,,,,,,,,,,,,,,,,,,,,,,,,,,,,141.5821163750952,141.5885590830585,142.0791719580302,142.0791719580302,142.15225554211065,142.15225554211065,142.15225554211065,142.91488612501416,right,1.3216202500043437,None,,,,,,,,591320,001,2025-08-16_12h31.50.944,tilt_mocs,2024.2.4,None,2025-08-16 12h31.58.000728 -0700,
2.0,0,PSE,noss,0,106,106,0,right,1.1466959159588441,None,,,,,,,,,0,106,106,38,142.923288042075,,,,,,,,,,,,,,,,,,,,,,,,,,,,,,142.91632912505884,142.923288042075,143.41259070800152,143.41259070800152,143.48571166710462,143.48571166710462,143.48571166710462,144.08078566705808,right,1.1466959159588441,None,,,,,,,,591320,001,2025-08-16_12h31.50.944,tilt_mocs,2024.2.4,None,2025-08-16 12h31.58.000728 -0700,
-2.5,-15,m1,negs,100,107,107,0,left,1.7096710830228403,None,,,,,,,,,0,107,107,1,144.08868595806416,,,,,,,,,,,,,,,,,,,,,,,,,,,,,,144.08186112507246,144.08868595806416,144.57960729207844,144.57960729207844,144.65261958306655,144.65261958306655,144.65261958306655,145.8035858750809,left,1.7096710830228403,None,,,,,,,,591320,001,2025-08-16_12h31.50.944,tilt_mocs,2024.2.4,None,2025-08-16 12h31.58.000728 -0700,
1.5,15,m1,poss,100,108,108,0,left,1.1713592080632225,None,,,,,,,,,0,108,108,41,145.8116297920933,,,,,,,,,,,,,,,,,,,,,,,,,,,,,,145.80459037504625,145.8116297920933,146.30432637501508,146.30432637501508,146.37922354205512,146.37922354205512,146.37922354205512,146.98641837504692,left,1.1713592080632225,None,,,,,,,,591320,001,2025-08-16_12h31.50.944,tilt_mocs,2024.2.4,None,2025-08-16 12h31.58.000728 -0700,
-2.0,-15,PSE,negs,100,109,109,0,right,0.986529792076908,None,,,,,,,,,0,109,109,116,146.9947943330044,,,,,,,,,,,,,,,,,,,,,,,,,,,,,,146.98738529207185,146.9947943330044,147.4868604580406,147.4868604580406,147.56293566699605,147.56293566699605,147.56293566699605,147.98630254203454,right,0.986529792076908,None,,,,,,,,591320,001,2025-08-16_12h31.50.944,tilt_mocs,2024.2.4,None,2025-08-16 12h31.58.000728 -0700,
2.5,0,p1,noss,0,110,110,0,right,1.0316982079530135,None,,,,,,,,,0,110,110,30,147.99475937499665,,,,,,,,,,,,,,,,,,,,,,,,,,,,,,147.98728804208804,147.99475937499665,148.48700704204384,148.48700704204384,148.56272808311041,148.56272808311041,148.56272808311041,149.0306672080187,right,1.0316982079530135,None,,,,,,,,591320,001,2025-08-16_12h31.50.944,tilt_mocs,2024.2.4,None,2025-08-16 12h31.58.000728 -0700,
2.0,15,PSE,poss,100,111,111,0,right,1.2237719579134136,None,,,,,,,,,0,111,111,56,149.0356501250062,,,,,,,,,,,,,,,,,,,,,,,,,,,,,,149.03178175003268,149.0356501250062,149.52965966705233,149.52965966705233,149.59966791700572,149.59966791700572,149.59966791700572,150.26447629206814,right,1.2237719579134136,None,,,,,,,,591320,001,2025-08-16_12h31.50.944,tilt_mocs,2024.2.4,None,2025-08-16 12h31.58.000728 -0700,
2.5,15,p1,poss,100,112,112,0,right,1.036014209035784,None,,,,,,,,,0,112,112,49,150.27229079208337,,,,,,,,,,,,,,,,,,,,,,,,,,,,,,150.26546529203188,150.27229079208337,150.7614410420647,150.7614410420647,150.83581079205032,150.83581079205032,150.83581079205032,151.3150763750309,right,1.036014209035784,None,,,,,,,,591320,001,2025-08-16_12h31.50.944,tilt_mocs,2024.2.4,None,2025-08-16 12h31.58.000728 -0700,
3.5,15,p2,poss,100,113,113,0,right,0.9569222499849275,None,,,,,,,,,0,113,113,54,151.32341616705526,,,,,,,,,,,,,,,,,,,,,,,,,,,,,,151.3164785830304,151.32341616705526,151.8115413330961,151.8115413330961,151.88612395804375,151.88612395804375,151.88612395804375,152.2903249580413,right,0.9569222499849275,None,,,,,,,,591320,001,2025-08-16_12h31.50.944,tilt_mocs,2024.2.4,None,2025-08-16 12h31.58.000728 -0700,
-3.5,-15,m2,negs,100,114,114,0,left,1.1281532919965684,None,,,,,,,,,0,114,114,67,152.29570691706613,,,,,,,,,,,,,,,,,,,,,,,,,,,,,,152.29130383301526,152.29570691706613,152.78754862502683,152.78754862502683,152.8628899171017,152.8628899171017,152.86871033301577,153.43063495808747,left,1.1281532919965684,None,,,,,,,,591320,001,2025-08-16_12h31.50.944,tilt_mocs,2024.2.4,None,2025-08-16 12h31.58.000728 -0700,
-2.5,-15,m1,negs,100,115,115,0,left,1.0266090839868411,None,,,,,,,,,0,115,115,63,153.43849087506533,,,,,,,,,,,,,,,,,,,,,,,,,,,,,,153.4316033750074,153.43849087506533,153.9281998750521,153.9281998750521,154.00259775004815,154.00259775004815,154.00259775004815,154.46636695810594,left,1.0266090839868411,None,,,,,,,,591320,001,2025-08-16_12h31.50.944,tilt_mocs,2024.2.4,None,2025-08-16 12h31.58.000728 -0700,
-1.5,0,p1,noss,0,116,116,0,left,0.9439298750367016,None,,,,,,,,,0,116,116,31,154.47809562506154,,,,,,,,,,,,,,,,,,,,,,,,,,,,,,154.466976042022,154.47809562506154,154.96219541702885,154.96219541702885,155.03547687502578,155.03547687502578,155.03547687502578,155.4254890830489,left,0.9439298750367016,None,,,,,,,,591320,001,2025-08-16_12h31.50.944,tilt_mocs,2024.2.4,None,2025-08-16 12h31.58.000728 -0700,
-0.5,-15,p2,negs,100,117,117,0,right,0.9883837500819936,None,,,,,,,,,0,117,117,13,155.43387554201763,,,,,,,,,,,,,,,,,,,,,,,,,,,,,,155.42660841706675,155.43387554201763,155.92051733308472,155.92051733308472,155.99593433307018,155.99593433307018,156.00276170810685,156.43068029207643,right,0.9883837500819936,None,,,,,,,,591320,001,2025-08-16_12h31.50.944,tilt_mocs,2024.2.4,None,2025-08-16 12h31.58.000728 -0700,
1.5,0,m1,noss,0,118,118,0,right,0.9777546250261366,None,,,,,,,,,0,118,118,22,156.4398681250168,,,,,,,,,,,,,,,,,,,,,,,,,,,,,,156.43298712500837,156.4398681250168,156.92864408309106,156.92864408309106,157.00281787500717,157.00281787500717,157.00281787500717,157.4204495419981,right,0.9777546250261366,None,,,,,,,,591320,001,2025-08-16_12h31.50.944,tilt_mocs,2024.2.4,None,2025-08-16 12h31.58.000728 -0700,
1.5,15,m1,poss,100,119,119,0,left,0.9968475000932813,None,,,,,,,,,0,119,119,121,157.42818558309227,,,,,,,,,,,,,,,,,,,,,,,,,,,,,,157.4214125830913,157.42818558309227,157.92105575010646,157.92105575010646,157.9962441250682,157.9962441250682,157.9962441250682,158.43078108306509,left,0.9968475000932813,None,,,,,,,,591320,001,2025-08-16_12h31.50.944,tilt_mocs,2024.2.4,None,2025-08-16 12h31.58.000728 -0700,
-2.0,-15,PSE,negs,100,120,120,0,right,1.7294523749733344,None,,,,,,,,,0,120,120,118,158.4381300000241,,,,,,,,,,,,,,,,,,,,,,,,,,,,,,158.43173512502108,158.4381300000241,158.92877400002908,158.92877400002908,159.0024203330977,159.0024203330977,159.0024203330977,160.18107600009535,right,1.7294523749733344,None,,,,,,,,591320,001,2025-08-16_12h31.50.944,tilt_mocs,2024.2.4,None,2025-08-16 12h31.58.000728 -0700,
0.5,15,m2,poss,100,121,121,0,left,0.9831092499662191,None,,,,,,,,,0,121,121,126,160.18857774999924,,,,,,,,,,,,,,,,,,,,,,,,,,,,,,160.18216633307748,160.18857774999924,160.6787472080905,160.6787472080905,160.75196729204617,160.75196729204617,160.75196729204617,161.18108954210766,left,0.9831092499662191,None,,,,,,,,591320,001,2025-08-16_12h31.50.944,tilt_mocs,2024.2.4,None,2025-08-16 12h31.58.000728 -0700,
0.5,0,m2,noss,0,122,122,0,left,1.0860323329688981,None,,,,,,,,,0,122,122,26,161.18831933301408,,,,,,,,,,,,,,,,,,,,,,,,,,,,,,161.182089167065,161.18831933301408,161.6792088750517,161.6792088750517,161.75204708310775,161.75204708310775,161.75204708310775,162.28141287504695,left,1.0860323329688981,None,,,,,,,,591320,001,2025-08-16_12h31.50.944,tilt_mocs,2024.2.4,None,2025-08-16 12h31.58.000728 -0700,
-3.5,-15,m2,negs,100,123,123,0,left,1.0499304580735043,None,,,,,,,,,0,123,123,104,162.28948420810048,,,,,,,,,,,,,,,,,,,,,,,,,,,,,,162.2825927080121,162.28948420810048,162.77853837504517,162.77853837504517,162.85233075008728,162.85233075008728,162.85233075008728,163.34684641705826,left,1.0499304580735043,None,,,,,,,,591320,001,2025-08-16_12h31.50.944,tilt_mocs,2024.2.4,None,2025-08-16 12h31.58.000728 -0700,
0.5,15,m2,poss,100,124,124,0,left,0.9642071659909561,None,,,,,,,,,0,124,124,87,163.3515124170808,,,,,,,,,,,,,,,,,,,,,,,,,,,,,,163.34732433303725,163.3515124170808,163.84500541700982,163.84500541700982,163.91779433307238,163.91779433307238,163.91779433307238,164.32042995805386,left,0.9642071659909561,None,,,,,,,,591320,001,2025-08-16_12h31.50.944,tilt_mocs,2024.2.4,None,2025-08-16 12h31.58.000728 -0700,
0.5,15,m2,poss,100,125,125,0,left,0.9485717499628663,None,,,,,,,,,0,125,125,86,164.32828287500888,,,,,,,,,,,,,,,,,,,,,,,,,,,,,,164.32152912509628,164.32828287500888,164.8207434579963,164.8207434579963,164.89629291708115,164.89629291708115,164.89629291708115,165.28086116700433,left,0.9485717499628663,None,,,,,,,,591320,001,2025-08-16_12h31.50.944,tilt_mocs,2024.2.4,None,2025-08-16 12h31.58.000728 -0700,
-0.5,-15,p2,negs,100,126,126,0,right,1.1746305410051718,None,,,,,,,,,0,126,126,74,165.28893999999855,,,,,,,,,,,,,,,,,,,,,,,,,,,,,,165.2822429171065,165.28893999999855,165.77832533302717,165.77832533302717,165.85220162500627,165.85220162500627,165.85220162500627,166.46783258300275,right,1.1746305410051718,None,,,,,,,,591320,001,2025-08-16_12h31.50.944,tilt_mocs,2024.2.4,None,2025-08-16 12h31.58.000728 -0700,
-3.5,-15,m2,negs,100,127,127,0,left,1.0297794579528272,None,,,,,,,,,0,127,127,4,166.47858566709328,,,,,,,,,,,,,,,,,,,,,,,,,,,,,,166.46879362501204,166.47858566709328,166.97934883309063,166.97934883309063,167.04920750006568,167.04920750006568,167.04526512511075,167.51408537500538,left,1.0297794579528272,None,,,,,,,,591320,001,2025-08-16_12h31.50.944,tilt_mocs,2024.2.4,None,2025-08-16 12h31.58.000728 -0700,
-2.5,-15,m1,negs,100,128,128,0,left,1.1174354999093339,None,,,,,,,,,0,128,128,0,167.52123537508305,,,,,,,,,,,,,,,,,,,,,,,,,,,,,,167.51501358300447,167.52123537508305,168.0122154171113,168.0122154171113,168.08316800009925,168.08316800009925,168.08316800009925,168.6484539580997,left,1.1174354999093339,None,,,,,,,,591320,001,2025-08-16_12h31.50.944,tilt_mocs,2024.2.4,None,2025-08-16 12h31.58.000728 -0700,
-2.5,-15,m1,negs,100,129,129,0,left,1.0071101669454947,None,,,,,,,,,0,129,129,103,168.65697437501512,,,,,,,,,,,,,,,,,,,,,,,,,,,,,,168.6498977500014,168.65697437501512,169.14568716706708,169.14568716706708,169.21890154201537,169.21890154201537,169.21890154201537,169.67336537502706,left,1.0071101669454947,None,,,,,,,,591320,001,2025-08-16_12h31.50.944,tilt_mocs,2024.2.4,None,2025-08-16 12h31.58.000728 -0700,
2.5,15,p1,poss,100,130,130,0,left,0.9756574580678716,None,,,,,,,,,0,130,130,129,169.67870504199527,,,,,,,,,,,,,,,,,,,,,,,,,,,,,,169.67431075009517,169.67870504199527,170.17059450002853,170.17059450002853,170.2462286670925,170.2462286670925,170.25239508308005,170.66452316707,left,0.9756574580678716,None,,,,,,,,591320,001,2025-08-16_12h31.50.944,tilt_mocs,2024.2.4,None,2025-08-16 12h31.58.000728 -0700,
0.5,15,m2,poss,100,131,131,0,left,0.9853063749615103,None,,,,,,,,,0,131,131,125,170.67218245810363,,,,,,,,,,,,,,,,,,,,,,,,,,,,,,170.6655207501026,170.67218245810363,171.1628010830609,171.1628010830609,171.23551775002852,171.23551775002852,171.23551775002852,171.66483045800123,left,0.9853063749615103,None,,,,,,,,591320,001,2025-08-16_12h31.50.944,tilt_mocs,2024.2.4,None,2025-08-16 12h31.58.000728 -0700,
1.5,15,m1,poss,100,132,132,0,left,1.245461874990724,None,,,,,,,,,0,132,132,42,171.67347125010565,,,,,,,,,,,,,,,,,,,,,,,,,,,,,,171.66654950007796,171.67347125010565,172.16273029206786,172.16273029206786,172.2352896250086,172.2352896250086,172.2352896250086,172.9211935000494,left,1.245461874990724,None,,,,,,,,591320,001,2025-08-16_12h31.50.944,tilt_mocs,2024.2.4,None,2025-08-16 12h31.58.000728 -0700,
-2.0,-15,PSE,negs,100,133,133,0,left,1.07042404206004,None,,,,,,,,,0,133,133,77,172.94584216701332,,,,,,,,,,,,,,,,,,,,,,,,,,,,,,172.92272466700524,172.94584216701332,173.42032316699624,173.42032316699624,173.49569579202216,173.49569579202216,173.49569579202216,174.01809916703496,left,1.07042404206004,None,,,,,,,,591320,001,2025-08-16_12h31.50.944,tilt_mocs,2024.2.4,None,2025-08-16 12h31.58.000728 -0700,
-2.0,-15,PSE,negs,100,134,134,0,left,1.1618438749574125,None,,,,,,,,,0,134,134,18,174.0287962500006,,,,,,,,,,,,,,,,,,,,,,,,,,,,,,174.01910254207905,174.0287962500006,174.51269658305682,174.51269658305682,174.58401904208586,174.58401904208586,174.59614770801272,175.19767712510657,left,1.1618438749574125,None,,,,,,,,591320,001,2025-08-16_12h31.50.944,tilt_mocs,2024.2.4,None,2025-08-16 12h31.58.000728 -0700,
-2.5,-15,m1,negs,100,135,135,0,left,0.9351437500445172,None,,,,,,,,,0,135,135,60,175.2053424580954,,,,,,,,,,,,,,,,,,,,,,,,,,,,,,175.19867520802654,175.2053424580954,175.69516966701485,175.69516966701485,175.7688098330982,175.7688098330982,175.7688098330982,176.14647150004748,left,0.9351437500445172,None,,,,,,,,591320,001,2025-08-16_12h31.50.944,tilt_mocs,2024.2.4,None,2025-08-16 12h31.58.000728 -0700,
1.5,15,m1,poss,100,136,136,0,left,0.9988551250426099,None,,,,,,,,,0,136,136,82,176.15233566705137,,,,,,,,,,,,,,,,,,,,,,,,,,,,,,176.14744029205758,176.15233566705137,176.63698195805773,176.63698195805773,176.7127500420902,176.7127500420902,176.71855633310042,177.15421087504365,left,0.9988551250426099,None,,,,,,,,591320,001,2025-08-16_12h31.50.944,tilt_mocs,2024.2.4,None,2025-08-16 12h31.58.000728 -0700,
1.5,15,m1,poss,100,137,137,0,left,0.9981609999667853,None,,,,,,,,,0,137,137,122,177.1616786250379,,,,,,,,,,,,,,,,,,,,,,,,,,,,,,177.15505833306815,177.1616786250379,177.6534716670867,177.6534716670867,177.72922750003636,177.72922750003636,177.72922750003636,178.16433595807757,left,0.9981609999667853,None,,,,,,,,591320,001,2025-08-16_12h31.50.944,tilt_mocs,2024.2.4,None,2025-08-16 12h31.58.000728 -0700,
2.0,15,PSE,poss,100,138,138,0,left,1.0296032909536734,None,,,,,,,,,0,138,138,59,178.17197854199912,,,,,,,,,,,,,,,,,,,,,,,,,,,,,,178.16538237500936,178.17197854199912,178.66307662508916,178.66307662508916,178.73416333307978,178.73416333307978,178.73416333307978,179.2036565419985,left,1.0296032909536734,None,,,,,,,,591320,001,2025-08-16_12h31.50.944,tilt_mocs,2024.2.4,None,2025-08-16 12h31.58.000728 -0700,
1.5,15,m1,poss,100,139,139,0,left,1.0658056660322472,None,,,,,,,,,0,139,139,123,179.21145629207604,,,,,,,,,,,,,,,,,,,,,,,,,,,,,,179.2046307080891,179.21145629207604,179.70510916702915,179.70510916702915,179.77922000002582,179.77922000002582,179.77922000002582,180.28215850004926,left,1.0658056660322472,None,,,,,,,,591320,001,2025-08-16_12h31.50.944,tilt_mocs,2024.2.4,None,2025-08-16 12h31.58.000728 -0700,
,,,,,,,,,,,,,,,,,,,,,,,,,,,,,,,,,,,,,,,,,,,,,,,,,,,,,,,,,,,,,,,,180.28227787499782,180.2906405000249,180.2906405000249,181.07105891709216,left,0.7771115830400959,None,591320,001,2025-08-16_12h31.50.944,tilt_mocs,2024.2.4,None,2025-08-16 12h31.58.000728 -0700,
