center,surround,type,surr_type,surr_opacity,thisN,thisTrialN,thisRepN,resp.keys,resp.rt,resp.duration,practice_no_time.thisRepN,practice_no_time.thisTrialN,practice_no_time.thisN,practice_no_time.thisIndex,practice_timed.thisRepN,practice_timed.thisTrialN,practice_timed.thisN,practice_timed.thisIndex,trials.thisRepN,trials.thisTrialN,trials.thisN,trials.thisIndex,thisRow.t,notes,instr.started,text_5.started,key_resp_2.started,instr.stopped,key_resp_2.keys,key_resp_2.rt,key_resp_2.duration,instr2.started,text_6.started,key_resp_6.started,instr2.stopped,key_resp_6.keys,key_resp_6.rt,key_resp_6.duration,instr3.started,text_8.started,key_resp_5.started,instr3.stopped,key_resp_5.keys,key_resp_5.rt,key_resp_5.duration,start_instr.started,text_13.started,key_resp_8.started,start_instr.stopped,key_resp_8.keys,key_resp_8.rt,key_resp_8.duration,trial.started,resp.started,surround_grating.started,center_grating.started,text_4.started,surround_grating.stopped,center_grating.stopped,trial.stopped,trials.resp.keys,trials.resp.rt,trials.resp.duration,end.started,text_14.started,key_resp.started,end.stopped,key_resp.keys,key_resp.rt,key_resp.duration,participant,session,date,expName,psychopyVersion,frameRate,expStart,
,,,,,,,,,,,,,,,,,,,,,,,,,0.012651959201321006,0.023466542130336165,0.023466542130336165,1.2226167500484735,space,1.1462534158490598,None,,,,,,,,,,,,,,,,,,,,,,,,,,,,,,,,,,,,,,,,brian,001,2025-08-19_16h36.51.316,tilt_mocs,2024.2.4,None,2025-08-19 16h37.11.445374 -0400,
,,,,,,,,,,,,,,,,,,,,,,,,,,,,,,,,1.222696291981265,1.2532779171597213,1.2532779171597213,1.6605444171000272,space,0.39877637499012053,None,,,,,,,,,,,,,,,,,,,,,,,,,,,,,,,,,brian,001,2025-08-19_16h36.51.316,tilt_mocs,2024.2.4,None,2025-08-19 16h37.11.445374 -0400,
,,,,,,,,,,,,,,,,,,,,,,,,,,,,,,,,,,,,,,,1.7183026671409607,1.729224625043571,1.729224625043571,3.486879625124857,space,1.7473140831571072,None,,,,,,,,,,,,,,,,,,,,,,,,,,brian,001,2025-08-19_16h36.51.316,tilt_mocs,2024.2.4,None,2025-08-19 16h37.11.445374 -0400,
,,,,,,,,,,,,,,,,,,,,,,,,,,,,,,,,,,,,,,,,,,,,,,3.494113667169586,3.500051209004596,3.500051209004596,5.0986606671940535,space,1.5940298750065267,None,,,,,,,,,,,,,,,,,,,brian,001,2025-08-19_16h36.51.316,tilt_mocs,2024.2.4,None,2025-08-19 16h37.11.445374 -0400,
0.5,15.0,m1,poss,100,0,0,0,right,2.305058625061065,None,,,,,,,,,0,0,0,33,5.126488292124122,,,,,,,,,,,,,,,,,,,,,,,,,,,,,,5.11901954212226,5.126488292124122,5.602828334085643,5.602828334085643,5.673930709017441,5.6781624590512365,5.6781624590512365,7.442965083988383,right,2.305058625061065,None,,,,,,,,brian,001,2025-08-19_16h36.51.316,tilt_mocs,2024.2.4,None,2025-08-19 16h37.11.445374 -0400,
-3.722222222222223,-15.0,m2,negs,100,1,1,0,left,1.21741420798935,None,,,,,,,,,0,1,1,116,7.582821250194684,,,,,,,,,,,,,,,,,,,,,,,,,,,,,,7.443936209194362,7.582821250194684,7.9415077501907945,7.9415077501907945,8.014215250033885,8.014215250033885,8.014215250033885,8.810188458999619,left,1.21741420798935,None,,,,,,,,brian,001,2025-08-19_16h36.51.316,tilt_mocs,2024.2.4,None,2025-08-19 16h37.11.445374 -0400,
-1.6388888888888888,0.0,m3,noss,0,2,2,0,left,0.9892421250697225,None,,,,,,,,,0,2,2,200,8.820864709094167,,,,,,,,,,,,,,,,,,,,,,,,,,,,,,8.811589459190145,8.820864709094167,9.308424959192052,9.308424959192052,9.380861834157258,9.380861834157258,9.380861834157258,9.816415625158697,left,0.9892421250697225,None,,,,,,,,brian,001,2025-08-19_16h36.51.316,tilt_mocs,2024.2.4,None,2025-08-19 16h37.11.445374 -0400,
-3.2222222222222228,-15.0,m1,negs,100,3,3,0,right,1.2181753751356155,None,,,,,,,,,0,3,3,135,9.824905459070578,,,,,,,,,,,,,,,,,,,,,,,,,,,,,,9.817545584170148,9.824905459070578,10.316038709133863,10.316038709133863,10.391426084097475,10.391426084097475,10.391426084097475,11.049066375009716,right,1.2181753751356155,None,,,,,,,,brian,001,2025-08-19_16h36.51.316,tilt_mocs,2024.2.4,None,2025-08-19 16h37.11.445374 -0400,
0.5,15.0,m3,poss,100,4,4,0,left,1.1258449170272797,None,,,,,,,,,0,4,4,3,11.057279959088191,,,,,,,,,,,,,,,,,,,,,,,,,,,,,,11.050211167195812,11.057279959088191,11.547862417064607,11.547862417064607,11.624703917186707,11.624703917186707,11.624703917186707,12.193268542177975,left,1.1258449170272797,None,,,,,,,,brian,001,2025-08-19_16h36.51.316,tilt_mocs,2024.2.4,None,2025-08-19 16h37.11.445374 -0400,
2.0,15.0,p2,poss,100,5,5,0,right,1.0761243749875575,None,,,,,,,,,0,5,5,82,12.20066550001502,,,,,,,,,,,,,,,,,,,,,,,,,,,,,,12.194710084004328,12.20066550001502,12.691549916984513,12.691549916984513,12.763541292166337,12.763541292166337,12.763541292166337,13.281268500024453,right,1.0761243749875575,None,,,,,,,,brian,001,2025-08-19_16h36.51.316,tilt_mocs,2024.2.4,None,2025-08-19 16h37.11.445374 -0400,
-3.2222222222222228,-15.0,m1,negs,100,6,6,0,left,1.1866754579823464,None,,,,,,,,,0,6,6,137,13.290337375132367,,,,,,,,,,,,,,,,,,,,,,,,,,,,,,13.282270500203595,13.290337375132367,13.783910542028025,13.783910542028025,13.858339375117794,13.858339375117794,13.858339375117794,14.482366624986753,left,1.1866754579823464,None,,,,,,,,brian,001,2025-08-19_16h36.51.316,tilt_mocs,2024.2.4,None,2025-08-19 16h37.11.445374 -0400,
2.0,15.0,p2,poss,100,7,7,0,left,1.2811773749999702,None,,,,,,,,,0,7,7,76,14.490800708997995,,,,,,,,,,,,,,,,,,,,,,,,,,,,,,14.483613667078316,14.490800708997995,14.983204750111327,14.983204750111327,15.058133334154263,15.058133334154263,15.058133334154263,15.776507917093113,left,1.2811773749999702,None,,,,,,,,brian,001,2025-08-19_16h36.51.316,tilt_mocs,2024.2.4,None,2025-08-19 16h37.11.445374 -0400,
2.5,15.0,p3,poss,100,8,8,0,right,1.153179540997371,None,,,,,,,,,0,8,8,86,15.784269500058144,,,,,,,,,,,,,,,,,,,,,,,,,,,,,,15.777505917008966,15.784269500058144,16.274818084202707,16.274818084202707,16.346698792185634,16.346698792185634,16.346698792185634,16.943258500192314,right,1.153179540997371,None,,,,,,,,brian,001,2025-08-19_16h36.51.316,tilt_mocs,2024.2.4,None,2025-08-19 16h37.11.445374 -0400,
2.0,15.0,p2,poss,100,9,9,0,right,1.2256532500032336,None,,,,,,,,,0,9,9,73,16.951178250135854,,,,,,,,,,,,,,,,,,,,,,,,,,,,,,16.94419545913115,16.951178250135854,17.441486792173237,17.441486792173237,17.514440583996475,17.514440583996475,17.514440583996475,18.182861709035933,right,1.2256532500032336,None,,,,,,,,brian,001,2025-08-19_16h36.51.316,tilt_mocs,2024.2.4,None,2025-08-19 16h37.11.445374 -0400,
0.5,15.0,m3,poss,100,10,10,0,right,1.8789292918518186,None,,,,,,,,,0,10,10,0,18.190717375138775,,,,,,,,,,,,,,,,,,,,,,,,,,,,,,18.183841041987762,18.190717375138775,18.68348087510094,18.68348087510094,18.75813616719097,18.75813616719097,18.75813616719097,20.077048417180777,right,1.8789292918518186,None,,,,,,,,brian,001,2025-08-19_16h36.51.316,tilt_mocs,2024.2.4,None,2025-08-19 16h37.11.445374 -0400,
-0.3611111111111111,0.0,p1,noss,0,11,11,0,left,1.9753466248512268,None,,,,,,,,,0,11,11,221,20.085250250063837,,,,,,,,,,,,,,,,,,,,,,,,,,,,,,20.07845020899549,20.085250250063837,20.574781750096008,20.574781750096008,20.6473847089801,20.6473847089801,20.6473847089801,22.066273084143177,left,1.9753466248512268,None,,,,,,,,brian,001,2025-08-19_16h36.51.316,tilt_mocs,2024.2.4,None,2025-08-19 16h37.11.445374 -0400,
0.5,15.0,m3,poss,100,12,12,0,left,1.046751792076975,None,,,,,,,,,0,12,12,6,22.074480875162408,,,,,,,,,,,,,,,,,,,,,,,,,,,,,,22.06749008409679,22.074480875162408,22.5667225420475,22.5667225420475,22.641442542197183,22.641442542197183,22.641442542197183,23.12596220918931,left,1.046751792076975,None,,,,,,,,brian,001,2025-08-19_16h36.51.316,tilt_mocs,2024.2.4,None,2025-08-19 16h37.11.445374 -0400,
-2.2222222222222228,-15.0,p1,negs,100,13,13,0,left,1.2799890839960426,None,,,,,,,,,0,13,13,154,23.13362270919606,,,,,,,,,,,,,,,,,,,,,,,,,,,,,,23.126917042071,23.13362270919606,23.624943625181913,23.624943625181913,23.697993292007595,23.697993292007595,23.697993292007595,24.415572834201157,left,1.2799890839960426,None,,,,,,,,brian,001,2025-08-19_16h36.51.316,tilt_mocs,2024.2.4,None,2025-08-19 16h37.11.445374 -0400,
-4.222222222222223,-15.0,m3,negs,100,14,14,0,left,1.1360570001415908,None,,,,,,,,,0,14,14,100,24.424243667162955,,,,,,,,,,,,,,,,,,,,,,,,,,,,,,24.41679675015621,24.424243667162955,24.915280875051394,24.915280875051394,24.991389750037342,24.991389750037342,24.991389750037342,25.565513791982085,left,1.1360570001415908,None,,,,,,,,brian,001,2025-08-19_16h36.51.316,tilt_mocs,2024.2.4,None,2025-08-19 16h37.11.445374 -0400,
1.0,15.0,PSE,poss,100,15,15,0,left,1.06943529099226,None,,,,,,,,,0,15,15,51,25.573523917002603,,,,,,,,,,,,,,,,,,,,,,,,,,,,,,25.566493584075943,25.573523917002603,26.06632845918648,26.06632845918648,26.141488417051733,26.141488417051733,26.141488417051733,26.653145792195573,left,1.06943529099226,None,,,,,,,,brian,001,2025-08-19_16h36.51.316,tilt_mocs,2024.2.4,None,2025-08-19 16h37.11.445374 -0400,
-1.7222222222222228,-15.0,p2,negs,100,16,16,0,right,1.1450479999184608,None,,,,,,,,,0,16,16,178,26.66039941716008,,,,,,,,,,,,,,,,,,,,,,,,,,,,,,26.654643916990608,26.66039941716008,27.149154792074114,27.149154792074114,27.230594084132463,27.224840959068388,27.224840959068388,27.810204416979104,right,1.1450479999184608,None,,,,,,,,brian,001,2025-08-19_16h36.51.316,tilt_mocs,2024.2.4,None,2025-08-19 16h37.11.445374 -0400,
-4.222222222222223,-15.0,m3,negs,100,17,17,0,left,3.376078624976799,None,,,,,,,,,0,17,17,106,27.818349334178492,,,,,,,,,,,,,,,,,,,,,,,,,,,,,,27.811310834018514,27.818349334178492,28.307186166988686,28.307186166988686,28.379794084001333,28.379794084001333,28.379794084001333,31.199477959191427,left,3.376078624976799,None,,,,,,,,brian,001,2025-08-19_16h36.51.316,tilt_mocs,2024.2.4,None,2025-08-19 16h37.11.445374 -0400,
-2.7222222222222228,-15.0,PSE,negs,100,18,18,0,right,1.0968060831073672,None,,,,,,,,,0,18,18,150,31.207422125153244,,,,,,,,,,,,,,,,,,,,,,,,,,,,,,31.200497000012547,31.207422125153244,31.700057666981593,31.700057666981593,31.77494433405809,31.77494433405809,31.77494433405809,32.31030225008726,right,1.0968060831073672,None,,,,,,,,brian,001,2025-08-19_16h36.51.316,tilt_mocs,2024.2.4,None,2025-08-19 16h37.11.445374 -0400,
2.0,15.0,p2,poss,100,19,19,0,right,1.1679438329301775,None,,,,,,,,,0,19,19,83,32.31845029210672,,,,,,,,,,,,,,,,,,,,,,,,,,,,,,32.31136737507768,32.31845029210672,32.80817212513648,32.80817212513648,32.88059245911427,32.88059245911427,32.88059245911427,33.493907917058095,right,1.1679438329301775,None,,,,,,,,brian,001,2025-08-19_16h36.51.316,tilt_mocs,2024.2.4,None,2025-08-19 16h37.11.445374 -0400,
-2.2222222222222228,-15.0,p1,negs,100,20,20,0,left,3.7575381668284535,None,,,,,,,,,0,20,20,155,33.502931042108685,,,,,,,,,,,,,,,,,,,,,,,,,,,,,,33.49574212520383,33.502931042108685,33.99074891698547,33.99074891698547,34.06303329207003,34.06303329207003,34.06303329207003,37.263491709018126,left,3.7575381668284535,None,,,,,,,,brian,001,2025-08-19_16h36.51.316,tilt_mocs,2024.2.4,None,2025-08-19 16h37.11.445374 -0400,
0.5,15.0,m1,poss,100,21,21,0,left,1.0530738339293748,None,,,,,,,,,0,21,21,41,37.27388287498616,,,,,,,,,,,,,,,,,,,,,,,,,,,,,,37.26451300014742,37.27388287498616,37.75800500018522,37.75800500018522,37.841627542162314,37.82909591705538,37.82909591705538,38.331353292101994,left,1.0530738339293748,None,,,,,,,,brian,001,2025-08-19_16h36.51.316,tilt_mocs,2024.2.4,None,2025-08-19 16h37.11.445374 -0400,
-4.222222222222223,-15.0,m3,negs,100,22,22,0,left,1.1027456670999527,None,,,,,,,,,0,22,22,101,38.34026454202831,,,,,,,,,,,,,,,,,,,,,,,,,,,,,,38.33250600006431,38.34026454202831,38.83282579202205,38.83282579202205,38.90799695905298,38.90799695905298,38.90799695905298,39.4479427090846,left,1.1027456670999527,None,,,,,,,,brian,001,2025-08-19_16h36.51.316,tilt_mocs,2024.2.4,None,2025-08-19 16h37.11.445374 -0400,
0.5,15.0,m3,poss,100,23,23,0,left,1.3721388750709593,None,,,,,,,,,0,23,23,8,39.45702241710387,,,,,,,,,,,,,,,,,,,,,,,,,,,,,,39.44889808399603,39.45702241710387,39.95105358399451,39.95105358399451,40.02463062503375,40.02463062503375,40.02463062503375,40.84120775014162,left,1.3721388750709593,None,,,,,,,,brian,001,2025-08-19_16h36.51.316,tilt_mocs,2024.2.4,None,2025-08-19 16h37.11.445374 -0400,
-1.2222222222222228,-15.0,p3,negs,100,24,24,0,right,1.1257613750640303,None,,,,,,,,,0,24,24,187,40.84535895916633,,,,,,,,,,,,,,,,,,,,,,,,,,,,,,40.84172462509014,40.84535895916633,41.331889167195186,41.331889167195186,41.414656959008425,41.40837354212999,41.40837354212999,41.97639950015582,right,1.1257613750640303,None,,,,,,,,brian,001,2025-08-19_16h36.51.316,tilt_mocs,2024.2.4,None,2025-08-19 16h37.11.445374 -0400,
-3.722222222222223,-15.0,m2,negs,100,25,25,0,left,1.2046165829524398,None,,,,,,,,,0,25,25,112,41.98408670909703,,,,,,,,,,,,,,,,,,,,,,,,,,,,,,41.977402709191665,41.98408670909703,42.474694959120825,42.474694959120825,42.54697062517516,42.54697062517516,42.54697062517516,43.19373887497932,left,1.2046165829524398,None,,,,,,,,brian,001,2025-08-19_16h36.51.316,tilt_mocs,2024.2.4,None,2025-08-19 16h37.11.445374 -0400,
-3.2222222222222228,-15.0,m1,negs,100,26,26,0,right,1.8417379159945995,None,,,,,,,,,0,26,26,134,43.20195908402093,,,,,,,,,,,,,,,,,,,,,,,,,,,,,,43.19506712513976,43.20195908402093,43.69039266719483,43.69039266719483,43.76460108417086,43.76460108417086,43.76460108417086,45.04922120901756,right,1.8417379159945995,None,,,,,,,,brian,001,2025-08-19_16h36.51.316,tilt_mocs,2024.2.4,None,2025-08-19 16h37.11.445374 -0400,
-1.3611111111111112,0.0,p3,noss,0,27,27,0,left,1.2249373330269009,None,,,,,,,,,0,27,27,237,45.05751979211345,,,,,,,,,,,,,,,,,,,,,,,,,,,,,,45.0504067922011,45.05751979211345,45.55006662500091,45.55006662500091,45.62491658399813,45.62491658399813,45.62491658399813,46.29337912518531,left,1.2249373330269009,None,,,,,,,,brian,001,2025-08-19_16h36.51.316,tilt_mocs,2024.2.4,None,2025-08-19 16h37.11.445374 -0400,
-2.7222222222222228,-15.0,PSE,negs,100,28,28,0,right,1.1037095000501722,None,,,,,,,,,0,28,28,141,46.30102204205468,,,,,,,,,,,,,,,,,,,,,,,,,,,,,,46.29448945913464,46.30102204205468,46.790350625058636,46.790350625058636,46.86448787502013,46.86448787502013,46.86448787502013,47.40958325006068,right,1.1037095000501722,None,,,,,,,,brian,001,2025-08-19_16h36.51.316,tilt_mocs,2024.2.4,None,2025-08-19 16h37.11.445374 -0400,
-3.722222222222223,-15.0,m2,negs,100,29,29,0,left,1.0933349581900984,None,,,,,,,,,0,29,29,123,47.41699408413842,,,,,,,,,,,,,,,,,,,,,,,,,,,,,,47.41050612507388,47.41699408413842,47.907022166997194,47.907022166997194,47.980310584185645,47.980310584185645,47.980310584185645,48.51281162514351,left,1.0933349581900984,None,,,,,,,,brian,001,2025-08-19_16h36.51.316,tilt_mocs,2024.2.4,None,2025-08-19 16h37.11.445374 -0400,
1.5,15.0,p1,poss,100,30,30,0,left,1.0883527919650078,None,,,,,,,,,0,30,30,64,48.52394308405928,,,,,,,,,,,,,,,,,,,,,,,,,,,,,,48.51328045898117,48.52394308405928,49.007769625168294,49.007769625168294,49.09089579200372,49.07903495919891,49.07903495919891,49.625479500042275,left,1.0883527919650078,None,,,,,,,,brian,001,2025-08-19_16h36.51.316,tilt_mocs,2024.2.4,None,2025-08-19 16h37.11.445374 -0400,
-2.7222222222222228,-15.0,PSE,negs,100,31,31,0,left,1.076582291861996,None,,,,,,,,,0,31,31,145,49.62962920917198,,,,,,,,,,,,,,,,,,,,,,,,,,,,,,49.62629158399068,49.62962920917198,50.11506395903416,50.11506395903416,50.196728750132024,50.19137295917608,50.19137295917608,50.709877292159945,left,1.076582291861996,None,,,,,,,,brian,001,2025-08-19_16h36.51.316,tilt_mocs,2024.2.4,None,2025-08-19 16h37.11.445374 -0400,
-2.7222222222222228,-15.0,PSE,negs,100,32,32,0,left,1.1590767500456423,None,,,,,,,,,0,32,32,140,50.717494084034115,,,,,,,,,,,,,,,,,,,,,,,,,,,,,,50.71086537512019,50.717494084034115,51.20806720899418,51.20806720899418,51.28113841707818,51.28113841707818,51.28113841707818,51.88579445914365,left,1.1590767500456423,None,,,,,,,,brian,001,2025-08-19_16h36.51.316,tilt_mocs,2024.2.4,None,2025-08-19 16h37.11.445374 -0400,
-2.2222222222222228,-15.0,p1,negs,100,33,33,0,left,1.10767991701141,None,,,,,,,,,0,33,33,163,51.891352083999664,,,,,,,,,,,,,,,,,,,,,,,,,,,,,,51.886785792186856,51.891352083999664,52.383052084129304,52.383052084129304,52.46363587514497,52.458043709164485,52.458043709164485,53.01028283406049,left,1.10767991701141,None,,,,,,,,brian,001,2025-08-19_16h36.51.316,tilt_mocs,2024.2.4,None,2025-08-19 16h37.11.445374 -0400,
-0.6388888888888888,0.0,m1,noss,0,34,34,0,left,1.0441290838643909,None,,,,,,,,,0,34,34,208,53.018298792187124,,,,,,,,,,,,,,,,,,,,,,,,,,,,,,53.011568458983675,53.018298792187124,53.508054125122726,53.508054125122726,53.5803770001512,53.5803770001512,53.5803770001512,54.06521925004199,left,1.0441290838643909,None,,,,,,,,brian,001,2025-08-19_16h36.51.316,tilt_mocs,2024.2.4,None,2025-08-19 16h37.11.445374 -0400,
0.5,15.0,m3,poss,100,35,35,0,left,1.0760645000264049,None,,,,,,,,,0,35,35,1,54.07373087503947,,,,,,,,,,,,,,,,,,,,,,,,,,,,,,54.066183417104185,54.07373087503947,54.566290833987296,54.566290833987296,54.641321958974004,54.641321958974004,54.641321958974004,55.160347959026694,left,1.0760645000264049,None,,,,,,,,brian,001,2025-08-19_16h36.51.316,tilt_mocs,2024.2.4,None,2025-08-19 16h37.11.445374 -0400,
-1.7222222222222228,-15.0,p2,negs,100,36,36,0,right,1.2954463339410722,None,,,,,,,,,0,36,36,174,55.16913808416575,,,,,,,,,,,,,,,,,,,,,,,,,,,,,,55.16193775017746,55.16913808416575,55.658470917027444,55.658470917027444,55.72807625005953,55.72807625005953,55.72807625005953,56.47466633399017,right,1.2954463339410722,None,,,,,,,,brian,001,2025-08-19_16h36.51.316,tilt_mocs,2024.2.4,None,2025-08-19 16h37.11.445374 -0400,
-0.8611111111111112,0.0,p2,noss,0,37,37,0,left,1.0479153748601675,None,,,,,,,,,0,37,37,227,56.479600875172764,,,,,,,,,,,,,,,,,,,,,,,,,,,,,,56.4757242500782,56.479600875172764,56.96654262510128,56.96654262510128,57.046775417169556,57.04143529199064,57.04143529199064,57.53078550007194,left,1.0479153748601675,None,,,,,,,,brian,001,2025-08-19_16h36.51.316,tilt_mocs,2024.2.4,None,2025-08-19 16h37.11.445374 -0400,
-2.2222222222222228,-15.0,p1,negs,100,38,38,0,left,1.186995083000511,None,,,,,,,,,0,38,38,156,57.54028483410366,,,,,,,,,,,,,,,,,,,,,,,,,,,,,,57.53173412499018,57.54028483410366,58.02448958414607,58.02448958414607,58.1080759591423,58.096191209042445,58.096191209042445,58.731233042199165,left,1.186995083000511,None,,,,,,,,brian,001,2025-08-19_16h36.51.316,tilt_mocs,2024.2.4,None,2025-08-19 16h37.11.445374 -0400,
1.0,15.0,PSE,poss,100,39,39,0,left,1.007119124988094,None,,,,,,,,,0,39,39,45,58.74023345904425,,,,,,,,,,,,,,,,,,,,,,,,,,,,,,58.731625500135124,58.74023345904425,59.232259292155504,59.232259292155504,59.30806125001982,59.30806125001982,59.30806125001982,59.74964729207568,left,1.007119124988094,None,,,,,,,,brian,001,2025-08-19_16h36.51.316,tilt_mocs,2024.2.4,None,2025-08-19 16h37.11.445374 -0400,
1.5,15.0,p1,poss,100,40,40,0,left,1.0684575419873,None,,,,,,,,,0,40,40,60,59.7581196250394,,,,,,,,,,,,,,,,,,,,,,,,,,,,,,59.75107558397576,59.7581196250394,60.249885542085394,60.249885542085394,60.325068042147905,60.325068042147905,60.325068042147905,60.83243399998173,left,1.0684575419873,None,,,,,,,,brian,001,2025-08-19_16h36.51.316,tilt_mocs,2024.2.4,None,2025-08-19 16h37.11.445374 -0400,
-3.722222222222223,-15.0,m2,negs,100,41,41,0,left,1.0215643751434982,None,,,,,,,,,0,41,41,114,60.84032945916988,,,,,,,,,,,,,,,,,,,,,,,,,,,,,,60.833400500006974,60.84032945916988,61.33262670901604,61.33262670901604,61.408037667162716,61.408037667162716,61.408037667162716,61.8651397919748,left,1.0215643751434982,None,,,,,,,,brian,001,2025-08-19_16h36.51.316,tilt_mocs,2024.2.4,None,2025-08-19 16h37.11.445374 -0400,
0.5,15.0,m3,poss,100,42,42,0,left,1.020365749951452,None,,,,,,,,,0,42,42,4,61.87360845902003,,,,,,,,,,,,,,,,,,,,,,,,,,,,,,61.86609383416362,61.87360845902003,62.36739004217088,62.36739004217088,62.441648750100285,62.441648750100285,62.441648750100285,62.89885837514885,left,1.020365749951452,None,,,,,,,,brian,001,2025-08-19_16h36.51.316,tilt_mocs,2024.2.4,None,2025-08-19 16h37.11.445374 -0400,
-1.7222222222222228,-15.0,p2,negs,100,43,43,0,left,1.1032628330867738,None,,,,,,,,,0,43,43,168,62.90700058406219,,,,,,,,,,,,,,,,,,,,,,,,,,,,,,62.90011783409864,62.90700058406219,63.39968216698617,63.39968216698617,63.47467124997638,63.47467124997638,63.47467124997638,64.01583008398302,left,1.1032628330867738,None,,,,,,,,brian,001,2025-08-19_16h36.51.316,tilt_mocs,2024.2.4,None,2025-08-19 16h37.11.445374 -0400,
-4.222222222222223,-15.0,m3,negs,100,44,44,0,left,1.0138392499648035,None,,,,,,,,,0,44,44,105,64.02383025013842,,,,,,,,,,,,,,,,,,,,,,,,,,,,,,64.01679829205386,64.02383025013842,64.51612079213373,64.51612079213373,64.59135654219426,64.59135654219426,64.59135654219426,65.04341270914301,left,1.0138392499648035,None,,,,,,,,brian,001,2025-08-19_16h36.51.316,tilt_mocs,2024.2.4,None,2025-08-19 16h37.11.445374 -0400,
-1.1388888888888888,0.0,m2,noss,0,45,45,0,left,1.036105499835685,None,,,,,,,,,0,45,45,203,65.05069954204373,,,,,,,,,,,,,,,,,,,,,,,,,,,,,,65.0443728340324,65.05069954204373,65.54141420917585,65.54141420917585,65.61376604204997,65.61376604204997,65.61376604204997,66.09304866706952,left,1.036105499835685,None,,,,,,,,brian,001,2025-08-19_16h36.51.316,tilt_mocs,2024.2.4,None,2025-08-19 16h37.11.445374 -0400,
1.5,15.0,p1,poss,100,46,46,0,left,0.9885651250369847,None,,,,,,,,,0,46,46,56,66.1009060840588,,,,,,,,,,,,,,,,,,,,,,,,,,,,,,66.09417504211888,66.1009060840588,66.59127212502062,66.59127212502062,66.66330800019205,66.66330800019205,66.66330800019205,67.0935775001999,left,0.9885651250369847,None,,,,,,,,brian,001,2025-08-19_16h36.51.316,tilt_mocs,2024.2.4,None,2025-08-19 16h37.11.445374 -0400,
-0.3611111111111111,0.0,p1,noss,0,47,47,0,left,1.7082423749379814,None,,,,,,,,,0,47,47,223,67.10163354198448,,,,,,,,,,,,,,,,,,,,,,,,,,,,,,67.09473120910116,67.10163354198448,67.5911950841546,67.5911950841546,67.66404504212551,67.66404504212551,67.66404504212551,68.81939249997959,left,1.7082423749379814,None,,,,,,,,brian,001,2025-08-19_16h36.51.316,tilt_mocs,2024.2.4,None,2025-08-19 16h37.11.445374 -0400,
-1.7222222222222228,-15.0,p2,negs,100,48,48,0,right,1.1419342500157654,None,,,,,,,,,0,48,48,175,68.82464058417827,,,,,,,,,,,,,,,,,,,,,,,,,,,,,,68.82033133413643,68.82464058417827,69.31649016705342,69.31649016705342,69.39772195904516,69.39137175003998,69.39137175003998,69.97707845899276,right,1.1419342500157654,None,,,,,,,,brian,001,2025-08-19_16h36.51.316,tilt_mocs,2024.2.4,None,2025-08-19 16h37.11.445374 -0400,
-2.7222222222222228,-15.0,PSE,negs,100,49,49,0,left,1.0429538330063224,None,,,,,,,,,0,49,49,152,69.98483054200187,,,,,,,,,,,,,,,,,,,,,,,,,,,,,,69.97807570919394,69.98483054200187,70.47467791708186,70.47467791708186,70.54546562512405,70.54546562512405,70.54546562512405,71.03031025012024,left,1.0429538330063224,None,,,,,,,,brian,001,2025-08-19_16h36.51.316,tilt_mocs,2024.2.4,None,2025-08-19 16h37.11.445374 -0400,
-1.1388888888888888,0.0,m2,noss,0,50,50,0,left,1.0080380830913782,None,,,,,,,,,0,50,50,207,71.0413686670363,,,,,,,,,,,,,,,,,,,,,,,,,,,,,,71.0309904590249,71.0413686670363,71.53213912504725,71.53213912504725,71.60827125003561,71.60827125003561,71.60827125003561,72.06036341702566,left,1.0080380830913782,None,,,,,,,,brian,001,2025-08-19_16h36.51.316,tilt_mocs,2024.2.4,None,2025-08-19 16h37.11.445374 -0400,
-1.3611111111111112,0.0,p3,noss,0,51,51,0,left,0.9583709579892457,None,,,,,,,,,0,51,51,235,72.06932562519796,,,,,,,,,,,,,,,,,,,,,,,,,,,,,,72.06203804211691,72.06932562519796,72.55809220904484,72.55809220904484,72.63037637504749,72.63037637504749,72.63037637504749,73.03180900006555,left,0.9583709579892457,None,,,,,,,,brian,001,2025-08-19_16h36.51.316,tilt_mocs,2024.2.4,None,2025-08-19 16h37.11.445374 -0400,
-2.2222222222222228,-15.0,p1,negs,100,52,52,0,left,1.029937749961391,None,,,,,,,,,0,52,52,161,73.0401782921981,,,,,,,,,,,,,,,,,,,,,,,,,,,,,,73.03220954211429,73.0401782921981,73.52371545904316,73.52371545904316,73.60803508409299,73.59595979214646,73.59595979214646,74.076812250074,left,1.029937749961391,None,,,,,,,,brian,001,2025-08-19_16h36.51.316,tilt_mocs,2024.2.4,None,2025-08-19 16h37.11.445374 -0400,
-3.2222222222222228,-15.0,m1,negs,100,53,53,0,left,1.0325854169204831,None,,,,,,,,,0,53,53,128,74.08486833400093,,,,,,,,,,,,,,,,,,,,,,,,,,,,,,74.07805491704494,74.08486833400093,74.57464145915583,74.57464145915583,74.64706241711974,74.64706241711974,74.64706241711974,75.12701129214838,left,1.0325854169204831,None,,,,,,,,brian,001,2025-08-19_16h36.51.316,tilt_mocs,2024.2.4,None,2025-08-19 16h37.11.445374 -0400,
2.0,15.0,p2,poss,100,54,54,0,left,1.0261682919226587,None,,,,,,,,,0,54,54,70,75.13625504216179,,,,,,,,,,,,,,,,,,,,,,,,,,,,,,75.12892237515189,75.13625504216179,75.6241177089978,75.6241177089978,75.69517658418044,75.69517658418044,75.69517658418044,76.16523216711357,left,1.0261682919226587,None,,,,,,,,brian,001,2025-08-19_16h36.51.316,tilt_mocs,2024.2.4,None,2025-08-19 16h37.11.445374 -0400,
1.0,15.0,PSE,poss,100,55,55,0,left,1.0701803751289845,None,,,,,,,,,0,55,55,50,76.1735518341884,,,,,,,,,,,,,,,,,,,,,,,,,,,,,,76.16626545903273,76.1735518341884,76.66546858404763,76.66546858404763,76.74116033408791,76.74116033408791,76.74116033408791,77.24844791716896,left,1.0701803751289845,None,,,,,,,,brian,001,2025-08-19_16h36.51.316,tilt_mocs,2024.2.4,None,2025-08-19 16h37.11.445374 -0400,
-4.222222222222223,-15.0,m3,negs,100,56,56,0,left,0.9936264578718692,None,,,,,,,,,0,56,56,104,77.25674775009975,,,,,,,,,,,,,,,,,,,,,,,,,,,,,,77.24946204200387,77.25674775009975,77.7495779171586,77.7495779171586,77.8248936671298,77.8248936671298,77.8248936671298,78.26030158414505,left,0.9936264578718692,None,,,,,,,,brian,001,2025-08-19_16h36.51.316,tilt_mocs,2024.2.4,None,2025-08-19 16h37.11.445374 -0400,
-1.3611111111111112,0.0,p3,noss,0,57,57,0,left,0.9801771659404039,None,,,,,,,,,0,57,57,236,78.26913175010122,,,,,,,,,,,,,,,,,,,,,,,,,,,,,,78.26204079203308,78.26913175010122,78.75804154202342,78.75804154202342,78.83062537503429,78.83062537503429,78.83062537503429,79.26029562507756,left,0.9801771659404039,None,,,,,,,,brian,001,2025-08-19_16h36.51.316,tilt_mocs,2024.2.4,None,2025-08-19 16h37.11.445374 -0400,
0.5,15.0,m3,poss,100,58,58,0,left,0.9750389591790736,None,,,,,,,,,0,58,58,12,79.26817508414388,,,,,,,,,,,,,,,,,,,,,,,,,,,,,,79.26139987516217,79.26817508414388,79.75789337512106,79.75789337512106,79.83004091703333,79.83004091703333,79.83004091703333,80.24808941711672,left,0.9750389591790736,None,,,,,,,,brian,001,2025-08-19_16h36.51.316,tilt_mocs,2024.2.4,None,2025-08-19 16h37.11.445374 -0400,
1.0,15.0,PSE,poss,100,59,59,0,left,0.9944676661398262,None,,,,,,,,,0,59,59,43,80.2569074172061,,,,,,,,,,,,,,,,,,,,,,,,,,,,,,80.24914979212917,80.2569074172061,80.74872925016098,80.74872925016098,80.82462795916945,80.82462795916945,80.82462795916945,81.26006604218856,left,0.9944676661398262,None,,,,,,,,brian,001,2025-08-19_16h36.51.316,tilt_mocs,2024.2.4,None,2025-08-19 16h37.11.445374 -0400,
-4.222222222222223,-15.0,m3,negs,100,60,60,0,left,1.0262933338526636,None,,,,,,,,,0,60,60,99,81.26815766701475,,,,,,,,,,,,,,,,,,,,,,,,,,,,,,81.26153000001796,81.26815766701475,81.75787204201333,81.75787204201333,81.83102899999358,81.83102899999358,81.83102899999358,82.29834470897913,left,1.0262933338526636,None,,,,,,,,brian,001,2025-08-19_16h36.51.316,tilt_mocs,2024.2.4,None,2025-08-19 16h37.11.445374 -0400,
-2.7222222222222228,-15.0,PSE,negs,100,61,61,0,left,0.9697206248529255,None,,,,,,,,,0,61,61,151,82.30681637511589,,,,,,,,,,,,,,,,,,,,,,,,,,,,,,82.29946437501349,82.30681637511589,82.79981725011021,82.79981725011021,82.87494250014424,82.87494250014424,82.87494250014424,83.28186454204842,left,0.9697206248529255,None,,,,,,,,brian,001,2025-08-19_16h36.51.316,tilt_mocs,2024.2.4,None,2025-08-19 16h37.11.445374 -0400,
-3.2222222222222228,-15.0,m1,negs,100,62,62,0,left,0.9647111250087619,None,,,,,,,,,0,62,62,129,83.29054958419874,,,,,,,,,,,,,,,,,,,,,,,,,,,,,,83.28258325019851,83.29054958419874,83.78304400015622,83.78304400015622,83.85798366717063,83.85798366717063,83.85798366717063,84.26008550007828,left,0.9647111250087619,None,,,,,,,,brian,001,2025-08-19_16h36.51.316,tilt_mocs,2024.2.4,None,2025-08-19 16h37.11.445374 -0400,
-3.2222222222222228,-15.0,m1,negs,100,63,63,0,left,1.0916306669823825,None,,,,,,,,,0,63,63,139,84.2687028341461,,,,,,,,,,,,,,,,,,,,,,,,,,,,,,84.2617285840679,84.2687028341461,84.75686479220167,84.75686479220167,84.83109208405949,84.83109208405949,84.83109208405949,85.36514633405022,left,1.0916306669823825,None,,,,,,,,brian,001,2025-08-19_16h36.51.316,tilt_mocs,2024.2.4,None,2025-08-19 16h37.11.445374 -0400,
-0.8611111111111112,0.0,p2,noss,0,64,64,0,left,1.0391209998633713,None,,,,,,,,,0,64,64,229,85.37338775000535,,,,,,,,,,,,,,,,,,,,,,,,,,,,,,85.366220084019,85.37338775000535,85.86627404205501,85.86627404205501,85.94127108412795,85.94127108412795,85.94127108412795,86.41512154205702,left,1.0391209998633713,None,,,,,,,,brian,001,2025-08-19_16h36.51.316,tilt_mocs,2024.2.4,None,2025-08-19 16h37.11.445374 -0400,
-0.6388888888888888,0.0,m1,noss,0,65,65,0,left,1.070660499855876,None,,,,,,,,,0,65,65,210,86.42364612501115,,,,,,,,,,,,,,,,,,,,,,,,,,,,,,86.41608541714959,86.42364612501115,86.9169214591384,86.9169214591384,86.99142512516119,86.99142512516119,86.99142512516119,87.49843641719781,left,1.070660499855876,None,,,,,,,,brian,001,2025-08-19_16h36.51.316,tilt_mocs,2024.2.4,None,2025-08-19 16h37.11.445374 -0400,
0.5,15.0,m1,poss,100,66,66,0,left,1.0441092911642045,None,,,,,,,,,0,66,66,40,87.50684950011782,,,,,,,,,,,,,,,,,,,,,,,,,,,,,,87.49941629217938,87.50684950011782,87.99968808400445,87.99968808400445,88.07460470916703,88.07460470916703,88.07460470916703,88.55973620899022,left,1.0441092911642045,None,,,,,,,,brian,001,2025-08-19_16h36.51.316,tilt_mocs,2024.2.4,None,2025-08-19 16h37.11.445374 -0400,
-2.2222222222222228,-15.0,p1,negs,100,67,67,0,right,1.075868665939197,None,,,,,,,,,0,67,67,164,88.56784120900556,,,,,,,,,,,,,,,,,,,,,,,,,,,,,,88.56074358406477,88.56784120900556,89.05793379200622,89.05793379200622,89.12914404203184,89.12914404203184,89.12914404203184,89.648758625146,right,1.075868665939197,None,,,,,,,,brian,001,2025-08-19_16h36.51.316,tilt_mocs,2024.2.4,None,2025-08-19 16h37.11.445374 -0400,
2.5,15.0,p3,poss,100,68,68,0,right,1.2193952919915318,None,,,,,,,,,0,68,68,95,89.6570247921627,,,,,,,,,,,,,,,,,,,,,,,,,,,,,,89.65001487499103,89.6570247921627,90.1499721670989,90.1499721670989,90.22481133416295,90.22481133416295,90.22481133416295,90.88179495907389,right,1.2193952919915318,None,,,,,,,,brian,001,2025-08-19_16h36.51.316,tilt_mocs,2024.2.4,None,2025-08-19 16h37.11.445374 -0400,
2.5,15.0,p3,poss,100,69,69,0,right,1.1860926251392812,None,,,,,,,,,0,69,69,87,90.89045354211703,,,,,,,,,,,,,,,,,,,,,,,,,,,,,,90.88291754201055,90.89045354211703,91.38265583408065,91.38265583408065,91.45807229215279,91.45807229215279,91.45807229215279,92.08204216719605,right,1.1860926251392812,None,,,,,,,,brian,001,2025-08-19_16h36.51.316,tilt_mocs,2024.2.4,None,2025-08-19 16h37.11.445374 -0400,
1.5,15.0,p1,poss,100,70,70,0,right,1.1893909580539912,None,,,,,,,,,0,70,70,68,92.09031079220586,,,,,,,,,,,,,,,,,,,,,,,,,,,,,,92.08314350014552,92.09031079220586,92.58325254218653,92.58325254218653,92.65798633405939,92.65798633405939,92.65798633405939,93.28177820914425,right,1.1893909580539912,None,,,,,,,,brian,001,2025-08-19_16h36.51.316,tilt_mocs,2024.2.4,None,2025-08-19 16h37.11.445374 -0400,
-1.6388888888888888,0.0,m3,noss,0,71,71,0,left,1.038324249908328,None,,,,,,,,,0,71,71,196,93.290165042039,,,,,,,,,,,,,,,,,,,,,,,,,,,,,,93.28274325001985,93.290165042039,93.7831902091857,93.7831902091857,93.85792041709647,93.85792041709647,93.85792041709647,94.33124133409001,left,1.038324249908328,None,,,,,,,,brian,001,2025-08-19_16h36.51.316,tilt_mocs,2024.2.4,None,2025-08-19 16h37.11.445374 -0400,
-0.6388888888888888,0.0,m1,noss,0,72,72,0,left,1.0698915829416364,None,,,,,,,,,0,72,72,213,94.34016116708517,,,,,,,,,,,,,,,,,,,,,,,,,,,,,,94.33200662513264,94.34016116708517,94.83240479207598,94.83240479207598,94.90802566707134,94.90802566707134,94.90802566707134,95.4159972500056,left,1.0698915829416364,None,,,,,,,,brian,001,2025-08-19_16h36.51.316,tilt_mocs,2024.2.4,None,2025-08-19 16h37.11.445374 -0400,
1.0,15.0,PSE,poss,100,73,73,0,left,1.0399275419767946,None,,,,,,,,,0,73,73,48,95.42444604216143,,,,,,,,,,,,,,,,,,,,,,,,,,,,,,95.4173162500374,95.42444604216143,95.9159555840306,95.9159555840306,95.99123016698286,95.99123016698286,95.99123016698286,96.4757357921917,left,1.0399275419767946,None,,,,,,,,brian,001,2025-08-19_16h36.51.316,tilt_mocs,2024.2.4,None,2025-08-19 16h37.11.445374 -0400,
0.5,15.0,m1,poss,100,74,74,0,left,1.0063915001228452,None,,,,,,,,,0,74,74,32,96.48346166708507,,,,,,,,,,,,,,,,,,,,,,,,,,,,,,96.47669875016436,96.48346166708507,96.96692250017077,96.96692250017077,97.04765212512575,97.04167116712779,97.04167116712779,97.49353266716935,left,1.0063915001228452,None,,,,,,,,brian,001,2025-08-19_16h36.51.316,tilt_mocs,2024.2.4,None,2025-08-19 16h37.11.445374 -0400,
-1.2222222222222228,-15.0,p3,negs,100,75,75,0,right,1.107896083034575,None,,,,,,,,,0,75,75,194,97.50153533415869,,,,,,,,,,,,,,,,,,,,,,,,,,,,,,97.49486204213463,97.50153533415869,97.99118395918049,97.99118395918049,98.0632015420124,98.0632015420124,98.0632015420124,98.61485358397476,right,1.107896083034575,None,,,,,,,,brian,001,2025-08-19_16h36.51.316,tilt_mocs,2024.2.4,None,2025-08-19 16h37.11.445374 -0400,
-1.1388888888888888,0.0,m2,noss,0,76,76,0,left,1.0534245839808136,None,,,,,,,,,0,76,76,206,98.62346041714773,,,,,,,,,,,,,,,,,,,,,,,,,,,,,,98.61605645902455,98.62346041714773,99.1156566250138,99.1156566250138,99.19111820915714,99.19111820915714,99.19111820915714,99.68265425018035,left,1.0534245839808136,None,,,,,,,,brian,001,2025-08-19_16h36.51.316,tilt_mocs,2024.2.4,None,2025-08-19 16h37.11.445374 -0400,
-3.2222222222222228,-15.0,m1,negs,100,77,77,0,left,1.047682167030871,None,,,,,,,,,0,77,77,138,99.69045954197645,,,,,,,,,,,,,,,,,,,,,,,,,,,,,,99.68364862515591,99.69045954197645,100.18416362511925,100.18416362511925,100.2579865839798,100.2579865839798,100.2579865839798,100.74129425012507,left,1.047682167030871,None,,,,,,,,brian,001,2025-08-19_16h36.51.316,tilt_mocs,2024.2.4,None,2025-08-19 16h37.11.445374 -0400,
1.5,15.0,p1,poss,100,78,78,0,left,1.2676355841103941,None,,,,,,,,,0,78,78,63,100.74566850019619,,,,,,,,,,,,,,,,,,,,,,,,,,,,,,100.7417652499862,100.74566850019619,101.23092925013043,101.23092925013043,101.3116510421969,101.30724625010043,101.30724625010043,102.0149287499953,left,1.2676355841103941,None,,,,,,,,brian,001,2025-08-19_16h36.51.316,tilt_mocs,2024.2.4,None,2025-08-19 16h37.11.445374 -0400,
-1.2222222222222228,-15.0,p3,negs,100,79,79,0,right,1.2588784589897841,None,,,,,,,,,0,79,79,185,102.0233592921868,,,,,,,,,,,,,,,,,,,,,,,,,,,,,,102.01618925016373,102.0233592921868,102.51537112519145,102.51537112519145,102.59148320904933,102.59148320904933,102.59148320904933,103.29352487507276,right,1.2588784589897841,None,,,,,,,,brian,001,2025-08-19_16h36.51.316,tilt_mocs,2024.2.4,None,2025-08-19 16h37.11.445374 -0400,
-3.722222222222223,-15.0,m2,negs,100,80,80,0,left,1.026830333052203,None,,,,,,,,,0,80,80,118,103.30144083406776,,,,,,,,,,,,,,,,,,,,,,,,,,,,,,103.29456141707487,103.30144083406776,103.79116575000808,103.79116575000808,103.86399737512693,103.86399737512693,103.86399737512693,104.33221008419059,left,1.026830333052203,None,,,,,,,,brian,001,2025-08-19_16h36.51.316,tilt_mocs,2024.2.4,None,2025-08-19 16h37.11.445374 -0400,
-0.1388888888888889,0.0,PSE,noss,0,81,81,0,left,1.2968610001262277,None,,,,,,,,,0,81,81,217,104.34054045914672,,,,,,,,,,,,,,,,,,,,,,,,,,,,,,104.33341579209082,104.34054045914672,104.83280616719276,104.83280616719276,104.90829020901583,104.90829020901583,104.90829020901583,105.6431435002014,left,1.2968610001262277,None,,,,,,,,brian,001,2025-08-19_16h36.51.316,tilt_mocs,2024.2.4,None,2025-08-19 16h37.11.445374 -0400,
-1.6388888888888888,0.0,m3,noss,0,82,82,0,left,1.130479915998876,None,,,,,,,,,0,82,82,201,105.65095662511885,,,,,,,,,,,,,,,,,,,,,,,,,,,,,,105.64415433397517,105.65095662511885,106.14130241703242,106.14130241703242,106.21398241701536,106.21398241701536,106.21398241701536,106.792758542113,left,1.130479915998876,None,,,,,,,,brian,001,2025-08-19_16h36.51.316,tilt_mocs,2024.2.4,None,2025-08-19 16h37.11.445374 -0400,
1.5,15.0,p1,poss,100,83,83,0,right,1.0756348329596221,None,,,,,,,,,0,83,83,67,106.80079779215157,,,,,,,,,,,,,,,,,,,,,,,,,,,,,,106.79400166706182,106.80079779215157,107.2908286252059,107.2908286252059,107.36426733410917,107.36426733410917,107.36426733410917,107.88595233415253,right,1.0756348329596221,None,,,,,,,,brian,001,2025-08-19_16h36.51.316,tilt_mocs,2024.2.4,None,2025-08-19 16h37.11.445374 -0400,
2.5,15.0,p3,poss,100,84,84,0,right,1.0796735838521272,None,,,,,,,,,0,84,84,96,107.89136729203165,,,,,,,,,,,,,,,,,,,,,,,,,,,,,,107.88688662508503,107.89136729203165,108.38323220913298,108.38323220913298,108.46265383413993,108.45788916712627,108.45788916712627,108.97617291705683,right,1.0796735838521272,None,,,,,,,,brian,001,2025-08-19_16h36.51.316,tilt_mocs,2024.2.4,None,2025-08-19 16h37.11.445374 -0400,
1.0,15.0,PSE,poss,100,85,85,0,right,1.895276291994378,None,,,,,,,,,0,85,85,52,108.98210820904933,,,,,,,,,,,,,,,,,,,,,,,,,,,,,,108.97685508406721,108.98210820904933,109.47460266714916,109.47460266714916,109.54509941698052,109.54509941698052,109.54509941698052,110.87986166705377,right,1.895276291994378,None,,,,,,,,brian,001,2025-08-19_16h36.51.316,tilt_mocs,2024.2.4,None,2025-08-19 16h37.11.445374 -0400,
2.0,15.0,p2,poss,100,86,86,0,right,2.259052542038262,None,,,,,,,,,0,86,86,81,110.89085225015879,,,,,,,,,,,,,,,,,,,,,,,,,,,,,,110.88080750009976,110.89085225015879,111.37457554205321,111.37457554205321,111.4579739170149,111.44482608418912,111.44482608418912,113.16033987514675,right,2.259052542038262,None,,,,,,,,brian,001,2025-08-19_16h36.51.316,tilt_mocs,2024.2.4,None,2025-08-19 16h37.11.445374 -0400,
0.5,15.0,m1,poss,100,87,87,0,left,1.0647202089894563,None,,,,,,,,,0,87,87,28,113.16711383406073,,,,,,,,,,,,,,,,,,,,,,,,,,,,,,113.16188775002956,113.16711383406073,113.65749925002456,113.65749925002456,113.72975829220377,113.72975829220377,113.72975829220377,114.2426123751793,left,1.0647202089894563,None,,,,,,,,brian,001,2025-08-19_16h36.51.316,tilt_mocs,2024.2.4,None,2025-08-19 16h37.11.445374 -0400,
0.5,15.0,m3,poss,100,88,88,0,left,0.9928787080571055,None,,,,,,,,,0,88,88,10,114.25049391714856,,,,,,,,,,,,,,,,,,,,,,,,,,,,,,114.24358104215935,114.25049391714856,114.74112150003202,114.74112150003202,114.81467941706069,114.81467941706069,114.81467941706069,115.24834775016643,left,0.9928787080571055,None,,,,,,,,brian,001,2025-08-19_16h36.51.316,tilt_mocs,2024.2.4,None,2025-08-19 16h37.11.445374 -0400,
-0.8611111111111112,0.0,p2,noss,0,89,89,0,left,0.9694258749950677,None,,,,,,,,,0,89,89,230,115.25679179211147,,,,,,,,,,,,,,,,,,,,,,,,,,,,,,115.24931637500413,115.25679179211147,115.7498947090935,115.7498947090935,115.82450945908204,115.82450945908204,115.82450945908204,116.2345150001347,left,0.9694258749950677,None,,,,,,,,brian,001,2025-08-19_16h36.51.316,tilt_mocs,2024.2.4,None,2025-08-19 16h37.11.445374 -0400,
-1.7222222222222228,-15.0,p2,negs,100,90,90,0,right,1.4227710000704974,None,,,,,,,,,0,90,90,173,116.23987283417955,,,,,,,,,,,,,,,,,,,,,,,,,,,,,,116.23546633403748,116.23987283417955,116.73235816718079,116.73235816718079,116.80779633414932,116.80779633414932,116.80779633414932,117.66426808410324,right,1.4227710000704974,None,,,,,,,,brian,001,2025-08-19_16h36.51.316,tilt_mocs,2024.2.4,None,2025-08-19 16h37.11.445374 -0400,
1.5,15.0,p1,poss,100,91,91,0,right,2.869132083840668,None,,,,,,,,,0,91,91,62,117.6738268751651,,,,,,,,,,,,,,,,,,,,,,,,,,,,,,117.66494733397849,117.6738268751651,118.16624787519686,118.16624787519686,118.24115600017831,118.24115600017831,118.24115600017831,120.54879370913841,right,2.869132083840668,None,,,,,,,,brian,001,2025-08-19_16h36.51.316,tilt_mocs,2024.2.4,None,2025-08-19 16h37.11.445374 -0400,
-2.2222222222222228,-15.0,p1,negs,100,92,92,0,left,1.2628271661233157,None,,,,,,,,,0,92,92,167,120.55726537504233,,,,,,,,,,,,,,,,,,,,,,,,,,,,,,120.55000091716647,120.55726537504233,121.04961141711101,121.04961141711101,121.12451429199427,121.12451429199427,121.12451429199427,121.82613033405505,left,1.2628271661233157,None,,,,,,,,brian,001,2025-08-19_16h36.51.316,tilt_mocs,2024.2.4,None,2025-08-19 16h37.11.445374 -0400,
1.0,15.0,PSE,poss,100,93,93,0,left,1.009387084050104,None,,,,,,,,,0,93,93,53,121.83383654197678,,,,,,,,,,,,,,,,,,,,,,,,,,,,,,121.82710008416325,121.83383654197678,122.32438762509264,122.32438762509264,122.39807825000025,122.39807825000025,122.39807825000025,122.84862595913,left,1.009387084050104,None,,,,,,,,brian,001,2025-08-19_16h36.51.316,tilt_mocs,2024.2.4,None,2025-08-19 16h37.11.445374 -0400,
1.0,15.0,PSE,poss,100,94,94,0,left,1.0454119581263512,None,,,,,,,,,0,94,94,46,122.85673529212363,,,,,,,,,,,,,,,,,,,,,,,,,,,,,,122.84982833405957,122.85673529212363,123.34880266711116,123.34880266711116,123.42443129210733,123.42443129210733,123.42443129210733,123.91041900007986,left,1.0454119581263512,None,,,,,,,,brian,001,2025-08-19_16h36.51.316,tilt_mocs,2024.2.4,None,2025-08-19 16h37.11.445374 -0400,
-3.2222222222222228,-15.0,m1,negs,100,95,95,0,left,2.3152586249634624,None,,,,,,,,,0,95,95,132,123.91797762503847,,,,,,,,,,,,,,,,,,,,,,,,,,,,,,123.91142420913093,123.91797762503847,124.40786916716024,124.40786916716024,124.48035691701807,124.48035691701807,124.48035691701807,126.24346145917661,left,2.3152586249634624,None,,,,,,,,brian,001,2025-08-19_16h36.51.316,tilt_mocs,2024.2.4,None,2025-08-19 16h37.11.445374 -0400,
-2.2222222222222228,-15.0,p1,negs,100,96,96,0,right,1.3794941250234842,None,,,,,,,,,0,96,96,160,126.25186608405784,,,,,,,,,,,,,,,,,,,,,,,,,,,,,,126.24489833414555,126.25186608405784,126.74122137506492,126.74122137506492,126.81181554216892,126.81181554216892,126.81181554216892,127.64374608406797,right,1.3794941250234842,None,,,,,,,,brian,001,2025-08-19_16h36.51.316,tilt_mocs,2024.2.4,None,2025-08-19 16h37.11.445374 -0400,
-0.6388888888888888,0.0,m1,noss,0,97,97,0,left,0.9936791250947863,None,,,,,,,,,0,97,97,209,127.64980129199103,,,,,,,,,,,,,,,,,,,,,,,,,,,,,,127.64449579198845,127.64980129199103,128.14102025004104,128.14102025004104,128.21353612514213,128.21353612514213,128.21353612514213,128.646212000167,left,0.9936791250947863,None,,,,,,,,brian,001,2025-08-19_16h36.51.316,tilt_mocs,2024.2.4,None,2025-08-19 16h37.11.445374 -0400,
1.5,15.0,p1,poss,100,98,98,0,left,1.0859284580219537,None,,,,,,,,,0,98,98,69,128.6567315000575,,,,,,,,,,,,,,,,,,,,,,,,,,,,,,128.64668075018562,128.6567315000575,129.14831300009973,129.14831300009973,129.22342533408664,129.22342533408664,129.22342533408664,129.74607400014065,left,1.0859284580219537,None,,,,,,,,brian,001,2025-08-19_16h36.51.316,tilt_mocs,2024.2.4,None,2025-08-19 16h37.11.445374 -0400,
0.5,15.0,m3,poss,100,99,99,0,left,1.0078235000837594,None,,,,,,,,,0,99,99,5,129.75679383403622,,,,,,,,,,,,,,,,,,,,,,,,,,,,,,129.74656716710888,129.75679383403622,130.24030150007457,130.24030150007457,130.32360841706395,130.3115335421171,130.3115335421171,130.7761391249951,left,1.0078235000837594,None,,,,,,,,brian,001,2025-08-19_16h36.51.316,tilt_mocs,2024.2.4,None,2025-08-19 16h37.11.445374 -0400,
0.0,15.0,m2,poss,100,100,100,0,left,0.9747682500164956,None,,,,,,,,,0,100,100,25,130.78448254219256,,,,,,,,,,,,,,,,,,,,,,,,,,,,,,130.77738566719927,130.78448254219256,131.27446508407593,131.27446508407593,131.34781708405353,131.34781708405353,131.34781708405353,131.76413825014606,left,0.9747682500164956,None,,,,,,,,brian,001,2025-08-19_16h36.51.316,tilt_mocs,2024.2.4,None,2025-08-19 16h37.11.445374 -0400,
-1.2222222222222228,-15.0,p3,negs,100,101,101,0,right,1.0317520420067012,None,,,,,,,,,0,101,101,189,131.77370858401991,,,,,,,,,,,,,,,,,,,,,,,,,,,,,,131.7652895420324,131.77370858401991,132.26370316720568,132.26370316720568,132.3407834591344,132.3407834591344,132.3407834591344,132.80932745919563,right,1.0317520420067012,None,,,,,,,,brian,001,2025-08-19_16h36.51.316,tilt_mocs,2024.2.4,None,2025-08-19 16h37.11.445374 -0400,
1.0,15.0,PSE,poss,100,102,102,0,left,2.0524344579316676,None,,,,,,,,,0,102,102,49,132.81727945897728,,,,,,,,,,,,,,,,,,,,,,,,,,,,,,132.81033266708255,132.81727945897728,133.30804829206318,133.30804829206318,133.38049424998462,133.38049424998462,133.38049424998462,134.87649808404967,left,2.0524344579316676,None,,,,,,,,brian,001,2025-08-19_16h36.51.316,tilt_mocs,2024.2.4,None,2025-08-19 16h37.11.445374 -0400,
0.0,15.0,m2,poss,100,103,103,0,left,1.0048946659080684,None,,,,,,,,,0,103,103,27,134.88483750005253,,,,,,,,,,,,,,,,,,,,,,,,,,,,,,134.8777999591548,134.88483750005253,135.37447904213332,135.37447904213332,135.44629262504168,135.44629262504168,135.44629262504168,135.893597709015,left,1.0048946659080684,None,,,,,,,,brian,001,2025-08-19_16h36.51.316,tilt_mocs,2024.2.4,None,2025-08-19 16h37.11.445374 -0400,
-1.7222222222222228,-15.0,p2,negs,100,104,104,0,right,1.2077563749626279,None,,,,,,,,,0,104,104,181,135.90221616718918,,,,,,,,,,,,,,,,,,,,,,,,,,,,,,135.89517283416353,135.90221616718918,136.39019258413464,136.39019258413464,136.46368691697717,136.46368691697717,136.46368691697717,137.114891334204,right,1.2077563749626279,None,,,,,,,,brian,001,2025-08-19_16h36.51.316,tilt_mocs,2024.2.4,None,2025-08-19 16h37.11.445374 -0400,
-0.6388888888888888,0.0,m1,noss,0,105,105,0,right,1.053202125011012,None,,,,,,,,,0,105,105,212,137.1234260420315,,,,,,,,,,,,,,,,,,,,,,,,,,,,,,137.11586425011046,137.1234260420315,137.61651762505062,137.61651762505062,137.69121479219757,137.69121479219757,137.69121479219757,138.1825880841352,right,1.053202125011012,None,,,,,,,,brian,001,2025-08-19_16h36.51.316,tilt_mocs,2024.2.4,None,2025-08-19 16h37.11.445374 -0400,
-2.7222222222222228,-15.0,PSE,negs,100,106,106,0,right,1.0754104589577764,None,,,,,,,,,0,106,106,147,138.19057824998163,,,,,,,,,,,,,,,,,,,,,,,,,,,,,,138.1837436670903,138.19057824998163,138.68306466704234,138.68306466704234,138.7577894590795,138.7577894590795,138.7577894590795,139.276880874997,right,1.0754104589577764,None,,,,,,,,brian,001,2025-08-19_16h36.51.316,tilt_mocs,2024.2.4,None,2025-08-19 16h37.11.445374 -0400,
2.0,15.0,p2,poss,100,107,107,0,right,1.3178054171148688,None,,,,,,,,,0,107,107,78,139.28528937511146,,,,,,,,,,,,,,,,,,,,,,,,,,,,,,139.27858450007625,139.28528937511146,139.77448041713797,139.77448041713797,139.84717595903203,139.84717595903203,139.84717595903203,140.60985729214735,right,1.3178054171148688,None,,,,,,,,brian,001,2025-08-19_16h36.51.316,tilt_mocs,2024.2.4,None,2025-08-19 16h37.11.445374 -0400,
-2.7222222222222228,-15.0,PSE,negs,100,108,108,0,right,1.1420727921649814,None,,,,,,,,,0,108,108,149,140.61794254207052,,,,,,,,,,,,,,,,,,,,,,,,,,,,,,140.6109667501878,140.61794254207052,141.1073628340382,141.1073628340382,141.18077370920219,141.18077370920219,141.18077370920219,141.7658716251608,right,1.1420727921649814,None,,,,,,,,brian,001,2025-08-19_16h36.51.316,tilt_mocs,2024.2.4,None,2025-08-19 16h37.11.445374 -0400,
-3.2222222222222228,-15.0,m1,negs,100,109,109,0,right,1.0325714168138802,None,,,,,,,,,0,109,109,131,141.772903167177,,,,,,,,,,,,,,,,,,,,,,,,,,,,,,141.76695454213768,141.772903167177,142.26645333413035,142.26645333413035,142.34111637505703,142.34111637505703,142.34111637505703,142.8102783341892,right,1.0325714168138802,None,,,,,,,,brian,001,2025-08-19_16h36.51.316,tilt_mocs,2024.2.4,None,2025-08-19 16h37.11.445374 -0400,
-1.1388888888888888,0.0,m2,noss,0,110,110,0,left,1.2940432918258011,None,,,,,,,,,0,110,110,205,142.81644729198888,,,,,,,,,,,,,,,,,,,,,,,,,,,,,,142.81085166707635,142.81644729198888,143.3075467920862,143.3075467920862,143.37741045909934,143.37741045909934,143.37741045909934,144.1155905420892,left,1.2940432918258011,None,,,,,,,,brian,001,2025-08-19_16h36.51.316,tilt_mocs,2024.2.4,None,2025-08-19 16h37.11.445374 -0400,
1.5,15.0,p1,poss,100,111,111,0,left,1.044848875142634,None,,,,,,,,,0,111,111,66,144.1240882501006,,,,,,,,,,,,,,,,,,,,,,,,,,,,,,144.1166785841342,144.1240882501006,144.61588758416474,144.61588758416474,144.69111258420162,144.69111258420162,144.69111258420162,145.17664245911874,left,1.044848875142634,None,,,,,,,,brian,001,2025-08-19_16h36.51.316,tilt_mocs,2024.2.4,None,2025-08-19 16h37.11.445374 -0400,
0.5,15.0,m1,poss,100,112,112,0,left,0.999133083038032,None,,,,,,,,,0,112,112,31,145.18489012517966,,,,,,,,,,,,,,,,,,,,,,,,,,,,,,145.1779417921789,145.18489012517966,145.674389625201,145.674389625201,145.74731220910326,145.74731220910326,145.74731220910326,146.19364220905118,left,0.999133083038032,None,,,,,,,,brian,001,2025-08-19_16h36.51.316,tilt_mocs,2024.2.4,None,2025-08-19 16h37.11.445374 -0400,
-3.722222222222223,-15.0,m2,negs,100,113,113,0,left,1.0425219170283526,None,,,,,,,,,0,113,113,121,146.2016914591659,,,,,,,,,,,,,,,,,,,,,,,,,,,,,,146.19492795900442,146.2016914591659,146.69007070898078,146.69007070898078,146.76399008417502,146.76399008417502,146.76399008417502,147.2469253751915,left,1.0425219170283526,None,,,,,,,,brian,001,2025-08-19_16h36.51.316,tilt_mocs,2024.2.4,None,2025-08-19 16h37.11.445374 -0400,
-0.1388888888888889,0.0,PSE,noss,0,114,114,0,right,1.3028519998770207,None,,,,,,,,,0,114,114,218,147.2567843750585,,,,,,,,,,,,,,,,,,,,,,,,,,,,,,147.24791100015864,147.2567843750585,147.7409893341828,147.7409893341828,147.82451070914976,147.81297824997455,147.81297824997455,148.5644805841148,right,1.3028519998770207,None,,,,,,,,brian,001,2025-08-19_16h36.51.316,tilt_mocs,2024.2.4,None,2025-08-19 16h37.11.445374 -0400,
-0.3611111111111111,0.0,p1,noss,0,115,115,0,left,1.036343667190522,None,,,,,,,,,0,115,115,220,148.57337379199453,,,,,,,,,,,,,,,,,,,,,,,,,,,,,,148.56487320899032,148.57337379199453,149.06646804208867,149.06646804208867,149.14133737515658,149.14133737515658,149.14133737515658,149.61497041699477,left,1.036343667190522,None,,,,,,,,brian,001,2025-08-19_16h36.51.316,tilt_mocs,2024.2.4,None,2025-08-19 16h37.11.445374 -0400,
2.5,15.0,p3,poss,100,116,116,0,right,1.128799624973908,None,,,,,,,,,0,116,116,91,149.62335300003178,,,,,,,,,,,,,,,,,,,,,,,,,,,,,,149.61594154220074,149.62335300003178,150.11472591711208,150.11472591711208,150.1904450841248,150.1904450841248,150.1904450841248,150.76005945913494,right,1.128799624973908,None,,,,,,,,brian,001,2025-08-19_16h36.51.316,tilt_mocs,2024.2.4,None,2025-08-19 16h37.11.445374 -0400,
-3.2222222222222228,-15.0,m1,negs,100,117,117,0,left,2.616868457989767,None,,,,,,,,,0,117,117,136,150.76863675005734,,,,,,,,,,,,,,,,,,,,,,,,,,,,,,150.76159254205413,150.76863675005734,151.25788945914246,151.25788945914246,151.3306834171526,151.3306834171526,151.3306834171526,153.3926482500974,left,2.616868457989767,None,,,,,,,,brian,001,2025-08-19_16h36.51.316,tilt_mocs,2024.2.4,None,2025-08-19 16h37.11.445374 -0400,
-1.2222222222222228,-15.0,p3,negs,100,118,118,0,right,1.0355680000502616,None,,,,,,,,,0,118,118,183,153.40031491708942,,,,,,,,,,,,,,,,,,,,,,,,,,,,,,153.39363425015472,153.40031491708942,153.8901013750583,153.8901013750583,153.9640047920402,153.9640047920402,153.9640047920402,154.44297995907255,right,1.0355680000502616,None,,,,,,,,brian,001,2025-08-19_16h36.51.316,tilt_mocs,2024.2.4,None,2025-08-19 16h37.11.445374 -0400,
0.0,15.0,m2,poss,100,119,119,0,left,1.052358000073582,None,,,,,,,,,0,119,119,19,154.45099862501957,,,,,,,,,,,,,,,,,,,,,,,,,,,,,,154.4442033751402,154.45099862501957,154.94031650014222,154.94031650014222,155.01253108400851,155.01253108400851,155.01253108400851,155.50948316720314,left,1.052358000073582,None,,,,,,,,brian,001,2025-08-19_16h36.51.316,tilt_mocs,2024.2.4,None,2025-08-19 16h37.11.445374 -0400,
-3.722222222222223,-15.0,m2,negs,100,120,120,0,left,1.1426727918442339,None,,,,,,,,,0,120,120,122,155.5168430840131,,,,,,,,,,,,,,,,,,,,,,,,,,,,,,155.51055545918643,155.5168430840131,156.0076105000917,156.0076105000917,156.0796606671065,156.0796606671065,156.0796606671065,156.66806583409198,left,1.1426727918442339,None,,,,,,,,brian,001,2025-08-19_16h36.51.316,tilt_mocs,2024.2.4,None,2025-08-19 16h37.11.445374 -0400,
-0.8611111111111112,0.0,p2,noss,0,121,121,0,left,1.009280249942094,None,,,,,,,,,0,121,121,226,156.67357933404855,,,,,,,,,,,,,,,,,,,,,,,,,,,,,,156.6690412920434,156.67357933404855,157.16609445912763,157.16609445912763,157.24750350019895,157.24129475001246,157.24129475001246,157.69347266713157,left,1.009280249942094,None,,,,,,,,brian,001,2025-08-19_16h36.51.316,tilt_mocs,2024.2.4,None,2025-08-19 16h37.11.445374 -0400,
1.5,15.0,p1,poss,100,122,122,0,left,1.007752083009109,None,,,,,,,,,0,122,122,58,157.7016032091342,,,,,,,,,,,,,,,,,,,,,,,,,,,,,,157.6949900421314,157.7016032091342,158.19103720900603,158.19103720900603,158.26352658402175,158.26352658402175,158.26352658402175,158.71851683408022,left,1.007752083009109,None,,,,,,,,brian,001,2025-08-19_16h36.51.316,tilt_mocs,2024.2.4,None,2025-08-19 16h37.11.445374 -0400,
0.0,15.0,m2,poss,100,123,123,0,left,1.0432792499195784,None,,,,,,,,,0,123,123,14,158.72391775017604,,,,,,,,,,,,,,,,,,,,,,,,,,,,,,158.71949758403935,158.72391775017604,159.21633595903404,159.21633595903404,159.2961946669966,159.2912629591301,159.2912629591301,159.77659258409403,left,1.0432792499195784,None,,,,,,,,brian,001,2025-08-19_16h36.51.316,tilt_mocs,2024.2.4,None,2025-08-19 16h37.11.445374 -0400,
1.5,15.0,p1,poss,100,124,124,0,left,1.074279832886532,None,,,,,,,,,0,124,124,61,159.7846434591338,,,,,,,,,,,,,,,,,,,,,,,,,,,,,,159.77772633405402,159.7846434591338,160.290046709124,160.290046709124,160.34423854202032,160.3615377501119,160.3615377501119,160.8629806251265,left,1.074279832886532,None,,,,,,,,brian,001,2025-08-19_16h36.51.316,tilt_mocs,2024.2.4,None,2025-08-19 16h37.11.445374 -0400,
-2.7222222222222228,-15.0,PSE,negs,100,125,125,0,right,1.2539035838562995,None,,,,,,,,,0,125,125,142,160.87330791703425,,,,,,,,,,,,,,,,,,,,,,,,,,,,,,160.86347120907158,160.87330791703425,161.36406770907342,161.36406770907342,161.44068054202944,161.44068054202944,161.44068054202944,162.1326306250412,right,1.2539035838562995,None,,,,,,,,brian,001,2025-08-19_16h36.51.316,tilt_mocs,2024.2.4,None,2025-08-19 16h37.11.445374 -0400,
0.5,15.0,m3,poss,100,126,126,0,left,1.054360083071515,None,,,,,,,,,0,126,126,7,162.14123312500305,,,,,,,,,,,,,,,,,,,,,,,,,,,,,,162.13387158419937,162.14123312500305,162.6330990002025,162.6330990002025,162.70780700002797,162.70780700002797,162.70780700002797,163.19773566699587,left,1.054360083071515,None,,,,,,,,brian,001,2025-08-19_16h36.51.316,tilt_mocs,2024.2.4,None,2025-08-19 16h37.11.445374 -0400,
2.0,15.0,p2,poss,100,127,127,0,right,1.1108505830634385,None,,,,,,,,,0,127,127,71,163.20663479203358,,,,,,,,,,,,,,,,,,,,,,,,,,,,,,163.19884179206565,163.20663479203358,163.69918758398853,163.69918758398853,163.77442408399656,163.77442408399656,163.77442408399656,164.32650179206394,right,1.1108505830634385,None,,,,,,,,brian,001,2025-08-19_16h36.51.316,tilt_mocs,2024.2.4,None,2025-08-19 16h37.11.445374 -0400,
-0.6388888888888888,0.0,m1,noss,0,128,128,0,right,2.0467834169976413,None,,,,,,,,,0,128,128,211,164.33413120917976,,,,,,,,,,,,,,,,,,,,,,,,,,,,,,164.32753870915622,164.33413120917976,164.82331462507136,164.82331462507136,164.89649683400057,164.89649683400057,164.89649683400057,166.39309045905247,right,2.0467834169976413,None,,,,,,,,brian,001,2025-08-19_16h36.51.316,tilt_mocs,2024.2.4,None,2025-08-19 16h37.11.445374 -0400,
0.5,15.0,m1,poss,100,129,129,0,left,1.041136208223179,None,,,,,,,,,0,129,129,34,166.40152729209512,,,,,,,,,,,,,,,,,,,,,,,,,,,,,,166.3942504171282,166.40152729209512,166.89026954211295,166.89026954211295,166.96358554204926,166.96358554204926,166.96358554204926,167.44753054203466,left,1.041136208223179,None,,,,,,,,brian,001,2025-08-19_16h36.51.316,tilt_mocs,2024.2.4,None,2025-08-19 16h37.11.445374 -0400,
-3.722222222222223,-15.0,m2,negs,100,130,130,0,left,1.2914637920912355,None,,,,,,,,,0,130,130,119,167.45665408414789,,,,,,,,,,,,,,,,,,,,,,,,,,,,,,167.447906000074,167.45665408414789,167.940342792077,167.940342792077,168.02442083414644,168.01237187511288,168.01237187511288,168.7595974591095,left,1.2914637920912355,None,,,,,,,,brian,001,2025-08-19_16h36.51.316,tilt_mocs,2024.2.4,None,2025-08-19 16h37.11.445374 -0400,
1.0,15.0,PSE,poss,100,131,131,0,left,0.9940598329994828,None,,,,,,,,,0,131,131,54,168.7680351671297,,,,,,,,,,,,,,,,,,,,,,,,,,,,,,168.76116020907648,168.7680351671297,169.2574678750243,169.2574678750243,169.32981054205447,169.32981054205447,169.32981054205447,169.76387341716327,left,0.9940598329994828,None,,,,,,,,brian,001,2025-08-19_16h36.51.316,tilt_mocs,2024.2.4,None,2025-08-19 16h37.11.445374 -0400,
-1.2222222222222228,-15.0,p3,negs,100,132,132,0,right,1.0457328748889267,None,,,,,,,,,0,132,132,184,169.77328400011174,,,,,,,,,,,,,,,,,,,,,,,,,,,,,,169.7649110001512,169.77328400011174,170.2664680420421,170.2664680420421,170.34114495897666,170.34114495897666,170.34114495897666,170.82651904202066,right,1.0457328748889267,None,,,,,,,,brian,001,2025-08-19_16h36.51.316,tilt_mocs,2024.2.4,None,2025-08-19 16h37.11.445374 -0400,
-1.7222222222222228,-15.0,p2,negs,100,133,133,0,right,1.0585869171191007,None,,,,,,,,,0,133,133,171,170.83427616697736,,,,,,,,,,,,,,,,,,,,,,,,,,,,,,170.82750795898028,170.83427616697736,171.32434987509623,171.32434987509623,171.39725420903414,171.39725420903414,171.39725420903414,171.89886658405885,right,1.0585869171191007,None,,,,,,,,brian,001,2025-08-19_16h36.51.316,tilt_mocs,2024.2.4,None,2025-08-19 16h37.11.445374 -0400,
-3.722222222222223,-15.0,m2,negs,100,134,134,0,left,1.0938847500365227,None,,,,,,,,,0,134,134,125,171.90704433410428,,,,,,,,,,,,,,,,,,,,,,,,,,,,,,171.90008083404973,171.90704433410428,172.39812937518582,172.39812937518582,172.47457283409312,172.47457283409312,172.47457283409312,173.00978062511422,left,1.0938847500365227,None,,,,,,,,brian,001,2025-08-19_16h36.51.316,tilt_mocs,2024.2.4,None,2025-08-19 16h37.11.445374 -0400,
-2.7222222222222228,-15.0,PSE,negs,100,135,135,0,left,1.114236791850999,None,,,,,,,,,0,135,135,153,173.01746191713028,,,,,,,,,,,,,,,,,,,,,,,,,,,,,,173.0109055840876,173.01746191713028,173.5076052090153,173.5076052090153,173.5799750420265,173.5799750420265,173.5799750420265,174.14211324998178,left,1.114236791850999,None,,,,,,,,brian,001,2025-08-19_16h36.51.316,tilt_mocs,2024.2.4,None,2025-08-19 16h37.11.445374 -0400,
-3.722222222222223,-15.0,m2,negs,100,136,136,0,left,1.1043599999975413,None,,,,,,,,,0,136,136,120,174.14995962497778,,,,,,,,,,,,,,,,,,,,,,,,,,,,,,174.14304450014606,174.14995962497778,174.64122104202397,174.64122104202397,174.71363187511452,174.71363187511452,174.71363187511452,175.25936708413064,left,1.1043599999975413,None,,,,,,,,brian,001,2025-08-19_16h36.51.316,tilt_mocs,2024.2.4,None,2025-08-19 16h37.11.445374 -0400,
-2.7222222222222228,-15.0,PSE,negs,100,137,137,0,left,1.1433393750339746,None,,,,,,,,,0,137,137,146,175.26648920914158,,,,,,,,,,,,,,,,,,,,,,,,,,,,,,175.26033470919356,175.26648920914158,175.7577217919752,175.7577217919752,175.8297627090942,175.8297627090942,175.8297627090942,176.4133156251628,left,1.1433393750339746,None,,,,,,,,brian,001,2025-08-19_16h36.51.316,tilt_mocs,2024.2.4,None,2025-08-19 16h37.11.445374 -0400,
-1.2222222222222228,-15.0,p3,negs,100,138,138,0,right,1.158887165831402,None,,,,,,,,,0,138,138,190,176.42406370909885,,,,,,,,,,,,,,,,,,,,,,,,,,,,,,176.4142215840984,176.42406370909885,176.90772308409214,176.90772308409214,176.99098112503998,176.97921020910144,176.97921020910144,177.5931850420311,right,1.158887165831402,None,,,,,,,,brian,001,2025-08-19_16h36.51.316,tilt_mocs,2024.2.4,None,2025-08-19 16h37.11.445374 -0400,
0.5,15.0,m1,poss,100,139,139,0,left,1.064575667027384,None,,,,,,,,,0,139,139,36,177.60179933416657,,,,,,,,,,,,,,,,,,,,,,,,,,,,,,177.59516508411616,177.60179933416657,178.09055212512612,178.09055212512612,178.16164679219946,178.16164679219946,178.16164679219946,178.67628916702233,left,1.064575667027384,None,,,,,,,,brian,001,2025-08-19_16h36.51.316,tilt_mocs,2024.2.4,None,2025-08-19 16h37.11.445374 -0400,
2.5,15.0,p3,poss,100,140,140,0,left,1.7085597920231521,None,,,,,,,,,0,140,140,88,178.68447620910592,,,,,,,,,,,,,,,,,,,,,,,,,,,,,,178.67752062506042,178.68447620910592,179.17413070914336,179.17413070914336,179.24514000001363,179.24514000001363,179.24514000001363,180.39781583403237,left,1.7085597920231521,None,,,,,,,,brian,001,2025-08-19_16h36.51.316,tilt_mocs,2024.2.4,None,2025-08-19 16h37.11.445374 -0400,
-1.6388888888888888,0.0,m3,noss,0,141,141,0,left,1.0200407078955323,None,,,,,,,,,0,141,141,198,180.40662083402276,,,,,,,,,,,,,,,,,,,,,,,,,,,,,,180.39878804213367,180.40662083402276,180.89010995905846,180.89010995905846,180.97439200012013,180.96252354211174,180.96252354211174,181.4322425001301,left,1.0200407078955323,None,,,,,,,,brian,001,2025-08-19_16h36.51.316,tilt_mocs,2024.2.4,None,2025-08-19 16h37.11.445374 -0400,
-3.2222222222222228,-15.0,m1,negs,100,142,142,0,left,1.557785082841292,None,,,,,,,,,0,142,142,130,181.4402018750552,,,,,,,,,,,,,,,,,,,,,,,,,,,,,,181.4332077500876,181.4402018750552,181.93279033410363,181.93279033410363,182.00768220913596,182.00768220913596,182.00768220913596,183.00990591710433,left,1.557785082841292,None,,,,,,,,brian,001,2025-08-19_16h36.51.316,tilt_mocs,2024.2.4,None,2025-08-19 16h37.11.445374 -0400,
-1.6388888888888888,0.0,m3,noss,0,143,143,0,left,1.0084542501717806,None,,,,,,,,,0,143,143,197,183.01782295899466,,,,,,,,,,,,,,,,,,,,,,,,,,,,,,183.0109128751792,183.01782295899466,183.50692295911722,183.50692295911722,183.57683820906095,183.57683820906095,183.57683820906095,184.03109458414838,left,1.0084542501717806,None,,,,,,,,brian,001,2025-08-19_16h36.51.316,tilt_mocs,2024.2.4,None,2025-08-19 16h37.11.445374 -0400,
0.5,15.0,m1,poss,100,144,144,0,left,1.0700525420252234,None,,,,,,,,,0,144,144,38,184.03998258407228,,,,,,,,,,,,,,,,,,,,,,,,,,,,,,184.03210520907305,184.03998258407228,184.5337128341198,184.5337128341198,184.60675145918503,184.60675145918503,184.60675145918503,185.11328950012103,left,1.0700525420252234,None,,,,,,,,brian,001,2025-08-19_16h36.51.316,tilt_mocs,2024.2.4,None,2025-08-19 16h37.11.445374 -0400,
-0.8611111111111112,0.0,p2,noss,0,145,145,0,left,1.9206542500760406,None,,,,,,,,,0,145,145,228,185.12323662498966,,,,,,,,,,,,,,,,,,,,,,,,,,,,,,185.11433379212394,185.12323662498966,185.61388783412986,185.61388783412986,185.6902322920505,185.6902322920505,185.6902322920505,187.0485603341367,left,1.9206542500760406,None,,,,,,,,brian,001,2025-08-19_16h36.51.316,tilt_mocs,2024.2.4,None,2025-08-19 16h37.11.445374 -0400,
2.5,15.0,p3,poss,100,146,146,0,right,1.1049067920539528,None,,,,,,,,,0,146,146,90,187.0567824591417,,,,,,,,,,,,,,,,,,,,,,,,,,,,,,187.0496055840049,187.0567824591417,187.54905108409002,187.54905108409002,187.62418029201217,187.62418029201217,187.62418029201217,188.1648927500937,right,1.1049067920539528,None,,,,,,,,brian,001,2025-08-19_16h36.51.316,tilt_mocs,2024.2.4,None,2025-08-19 16h37.11.445374 -0400,
-1.7222222222222228,-15.0,p2,negs,100,147,147,0,right,1.0147773751523346,None,,,,,,,,,0,147,147,169,188.17325133411214,,,,,,,,,,,,,,,,,,,,,,,,,,,,,,188.1656791670248,188.17325133411214,188.66440570913255,188.66440570913255,188.74105254211463,188.74105254211463,188.74105254211463,189.19340204214677,right,1.0147773751523346,None,,,,,,,,brian,001,2025-08-19_16h36.51.316,tilt_mocs,2024.2.4,None,2025-08-19 16h37.11.445374 -0400,
-2.2222222222222228,-15.0,p1,negs,100,148,148,0,right,0.9916272079572082,None,,,,,,,,,0,148,148,165,189.20181979215704,,,,,,,,,,,,,,,,,,,,,,,,,,,,,,189.1946406250354,189.20181979215704,189.69084387505427,189.69084387505427,189.76405741716735,189.76405741716735,189.76405741716735,190.19662254210562,right,0.9916272079572082,None,,,,,,,,brian,001,2025-08-19_16h36.51.316,tilt_mocs,2024.2.4,None,2025-08-19 16h37.11.445374 -0400,
2.5,15.0,p3,poss,100,149,149,0,right,1.07281675003469,None,,,,,,,,,0,149,149,97,190.20690741715953,,,,,,,,,,,,,,,,,,,,,,,,,,,,,,190.19758912501857,190.20690741715953,190.69052279205061,190.69052279205061,190.77367908414453,190.76128687500022,190.76128687500022,191.29271720908582,right,1.07281675003469,None,,,,,,,,brian,001,2025-08-19_16h36.51.316,tilt_mocs,2024.2.4,None,2025-08-19 16h37.11.445374 -0400,
1.0,15.0,PSE,poss,100,150,150,0,right,1.6002063329797238,None,,,,,,,,,0,150,150,55,191.30058966716751,,,,,,,,,,,,,,,,,,,,,,,,,,,,,,191.2940250420943,191.30058966716751,191.79056133399718,191.79056133399718,191.86408783402294,191.86408783402294,191.86408783402294,192.91108600003645,right,1.6002063329797238,None,,,,,,,,brian,001,2025-08-19_16h36.51.316,tilt_mocs,2024.2.4,None,2025-08-19 16h37.11.445374 -0400,
-0.3611111111111111,0.0,p1,noss,0,151,151,0,right,3.5206811658572406,None,,,,,,,,,0,151,151,224,192.92195745906793,,,,,,,,,,,,,,,,,,,,,,,,,,,,,,192.91314258403145,192.92195745906793,193.406627709046,193.406627709046,193.4789320421405,193.4789320421405,193.4789320421405,196.44876487506554,right,3.5206811658572406,None,,,,,,,,brian,001,2025-08-19_16h36.51.316,tilt_mocs,2024.2.4,None,2025-08-19 16h37.11.445374 -0400,
-2.2222222222222228,-15.0,p1,negs,100,152,152,0,right,1.1797621250152588,None,,,,,,,,,0,152,152,159,196.45737087517045,,,,,,,,,,,,,,,,,,,,,,,,,,,,,,196.44999737502076,196.45737087517045,196.94961962499656,196.94961962499656,197.0244048750028,197.0244048750028,197.0244048750028,197.6424598339945,right,1.1797621250152588,None,,,,,,,,brian,001,2025-08-19_16h36.51.316,tilt_mocs,2024.2.4,None,2025-08-19 16h37.11.445374 -0400,
-2.7222222222222228,-15.0,PSE,negs,100,153,153,0,right,1.0020138339605182,None,,,,,,,,,0,153,153,143,197.64785120915622,,,,,,,,,,,,,,,,,,,,,,,,,,,,,,197.64287587511353,197.64785120915622,198.14096579211764,198.14096579211764,198.21237300010398,198.21237300010398,198.21237300010398,198.65925466711633,right,1.0020138339605182,None,,,,,,,,brian,001,2025-08-19_16h36.51.316,tilt_mocs,2024.2.4,None,2025-08-19 16h37.11.445374 -0400,
2.5,15.0,p3,poss,100,154,154,0,right,1.093020541826263,None,,,,,,,,,0,154,154,85,198.66709254216403,,,,,,,,,,,,,,,,,,,,,,,,,,,,,,198.66023425012827,198.66709254216403,199.1575780841522,199.1575780841522,199.22828420903534,199.22828420903534,199.22828420903534,199.76330625009723,right,1.093020541826263,None,,,,,,,,brian,001,2025-08-19_16h36.51.316,tilt_mocs,2024.2.4,None,2025-08-19 16h37.11.445374 -0400,
0.0,15.0,m2,poss,100,155,155,0,left,1.0192049159668386,None,,,,,,,,,0,155,155,18,199.77325229207054,,,,,,,,,,,,,,,,,,,,,,,,,,,,,,199.76434979215264,199.77325229207054,200.2576850419864,200.2576850419864,200.3415242920164,200.33017829200253,200.33017829200253,200.79625116707757,left,1.0192049159668386,None,,,,,,,,brian,001,2025-08-19_16h36.51.316,tilt_mocs,2024.2.4,None,2025-08-19 16h37.11.445374 -0400,
-4.222222222222223,-15.0,m3,negs,100,156,156,0,right,1.9768090839497745,None,,,,,,,,,0,156,156,102,200.80663229199126,,,,,,,,,,,,,,,,,,,,,,,,,,,,,,200.7967944170814,200.80663229199126,201.29767325008288,201.29767325008288,201.37327379197814,201.37327379197814,201.37327379197814,202.79239270905964,right,1.9768090839497745,None,,,,,,,,brian,001,2025-08-19_16h36.51.316,tilt_mocs,2024.2.4,None,2025-08-19 16h37.11.445374 -0400,
-1.7222222222222228,-15.0,p2,negs,100,157,157,0,right,1.093315458158031,None,,,,,,,,,0,157,157,179,202.80004075006582,,,,,,,,,,,,,,,,,,,,,,,,,,,,,,202.79365837504156,202.80004075006582,203.29050304205157,203.29050304205157,203.3738362090662,203.3738362090662,203.3738362090662,203.89734679204412,right,1.093315458158031,None,,,,,,,,brian,001,2025-08-19_16h36.51.316,tilt_mocs,2024.2.4,None,2025-08-19 16h37.11.445374 -0400,
-1.1388888888888888,0.0,m2,noss,0,158,158,0,left,1.1596077498979867,None,,,,,,,,,0,158,158,202,203.906649291981,,,,,,,,,,,,,,,,,,,,,,,,,,,,,,203.89855975005776,203.906649291981,204.39704612502828,204.39704612502828,204.47412925004028,204.47412925004028,204.47412925004028,205.07667516707443,left,1.1596077498979867,None,,,,,,,,brian,001,2025-08-19_16h36.51.316,tilt_mocs,2024.2.4,None,2025-08-19 16h37.11.445374 -0400,
0.0,15.0,m2,poss,100,159,159,0,left,1.0152496250811964,None,,,,,,,,,0,159,159,20,205.0849913340062,,,,,,,,,,,,,,,,,,,,,,,,,,,,,,205.07785716699436,205.0849913340062,205.57424837513827,205.57424837513827,205.6464751251042,205.6464751251042,205.6464751251042,206.1100145841483,left,1.0152496250811964,None,,,,,,,,brian,001,2025-08-19_16h36.51.316,tilt_mocs,2024.2.4,None,2025-08-19 16h37.11.445374 -0400,
0.0,15.0,m2,poss,100,160,160,0,left,0.9752294579520822,None,,,,,,,,,0,160,160,26,206.11822383408435,,,,,,,,,,,,,,,,,,,,,,,,,,,,,,206.11103154206648,206.11822383408435,206.60687991720624,206.60687991720624,206.68048554216512,206.68048554216512,206.68048554216512,207.0993819590658,left,0.9752294579520822,None,,,,,,,,brian,001,2025-08-19_16h36.51.316,tilt_mocs,2024.2.4,None,2025-08-19 16h37.11.445374 -0400,
-2.2222222222222228,-15.0,p1,negs,100,161,161,0,right,1.1483269580639899,None,,,,,,,,,0,161,161,158,207.10673383413814,,,,,,,,,,,,,,,,,,,,,,,,,,,,,,207.10041537508368,207.10673383413814,207.6001589591615,207.6001589591615,207.67435570899397,207.67435570899397,207.67435570899397,208.26002616714686,right,1.1483269580639899,None,,,,,,,,brian,001,2025-08-19_16h36.51.316,tilt_mocs,2024.2.4,None,2025-08-19 16h37.11.445374 -0400,
-0.3611111111111111,0.0,p1,noss,0,162,162,0,right,1.134860916994512,None,,,,,,,,,0,162,162,225,208.2667228342034,,,,,,,,,,,,,,,,,,,,,,,,,,,,,,208.26116208406165,208.2667228342034,208.75753287505358,208.75753287505358,208.82930695917457,208.82930695917457,208.82930695917457,209.40990941715427,right,1.134860916994512,None,,,,,,,,brian,001,2025-08-19_16h36.51.316,tilt_mocs,2024.2.4,None,2025-08-19 16h37.11.445374 -0400,
1.5,15.0,p1,poss,100,163,163,0,right,1.3016463338863105,None,,,,,,,,,0,163,163,65,209.41808912507258,,,,,,,,,,,,,,,,,,,,,,,,,,,,,,209.41097112512216,209.41808912507258,209.9077765000984,209.9077765000984,209.97988237510435,209.97988237510435,209.97988237510435,210.72672891709954,right,1.3016463338863105,None,,,,,,,,brian,001,2025-08-19_16h36.51.316,tilt_mocs,2024.2.4,None,2025-08-19 16h37.11.445374 -0400,
2.5,15.0,p3,poss,100,164,164,0,right,1.036422000033781,None,,,,,,,,,0,164,164,84,210.73892324999906,,,,,,,,,,,,,,,,,,,,,,,,,,,,,,210.7286669171881,210.73892324999906,211.2241993751377,211.2241993751377,211.29713504202664,211.29713504202664,211.29713504202664,211.78367037512362,right,1.036422000033781,None,,,,,,,,brian,001,2025-08-19_16h36.51.316,tilt_mocs,2024.2.4,None,2025-08-19 16h37.11.445374 -0400,
-1.2222222222222228,-15.0,p3,negs,100,165,165,0,right,1.0611434169113636,None,,,,,,,,,0,165,165,195,211.79017225001007,,,,,,,,,,,,,,,,,,,,,,,,,,,,,,211.78445595898665,211.79017225001007,212.28343070903793,212.28343070903793,212.35769908409566,212.35769908409566,212.35769908409566,212.86007695901208,right,1.0611434169113636,None,,,,,,,,brian,001,2025-08-19_16h36.51.316,tilt_mocs,2024.2.4,None,2025-08-19 16h37.11.445374 -0400,
-1.3611111111111112,0.0,p3,noss,0,166,166,0,left,1.057682374957949,None,,,,,,,,,0,166,166,233,212.86815187497996,,,,,,,,,,,,,,,,,,,,,,,,,,,,,,212.86112091713585,212.86815187497996,213.35713754198514,213.35713754198514,213.43122708401643,213.43122708401643,213.43122708401643,213.93419308401644,left,1.057682374957949,None,,,,,,,,brian,001,2025-08-19_16h36.51.316,tilt_mocs,2024.2.4,None,2025-08-19 16h37.11.445374 -0400,
-3.2222222222222228,-15.0,m1,negs,100,167,167,0,left,1.1082881661131978,None,,,,,,,,,0,167,167,127,213.940233041998,,,,,,,,,,,,,,,,,,,,,,,,,,,,,,213.93525170907378,213.940233041998,214.43341295910068,214.43341295910068,214.5127774591092,214.5127774591092,214.5127774591092,215.05991570907645,left,1.1082881661131978,None,,,,,,,,brian,001,2025-08-19_16h36.51.316,tilt_mocs,2024.2.4,None,2025-08-19 16h37.11.445374 -0400,
0.0,15.0,m2,poss,100,168,168,0,left,1.0692522500175983,None,,,,,,,,,0,168,168,21,215.06838333420455,,,,,,,,,,,,,,,,,,,,,,,,,,,,,,215.0610972500872,215.06838333420455,215.55755016719922,215.55755016719922,215.6304599591531,215.6304599591531,215.6304599591531,216.1424399591051,left,1.0692522500175983,None,,,,,,,,brian,001,2025-08-19_16h36.51.316,tilt_mocs,2024.2.4,None,2025-08-19 16h37.11.445374 -0400,
-1.7222222222222228,-15.0,p2,negs,100,169,169,0,right,1.1285892908927053,None,,,,,,,,,0,169,169,170,216.1499238340184,,,,,,,,,,,,,,,,,,,,,,,,,,,,,,216.1433797921054,216.1499238340184,216.63990775006823,216.63990775006823,216.7140546250157,216.7140546250157,216.7140546250157,217.28162120911293,right,1.1285892908927053,None,,,,,,,,brian,001,2025-08-19_16h36.51.316,tilt_mocs,2024.2.4,None,2025-08-19 16h37.11.445374 -0400,
-0.1388888888888889,0.0,PSE,noss,0,170,170,0,right,1.6297369999811053,None,,,,,,,,,0,170,170,219,217.2899193339981,,,,,,,,,,,,,,,,,,,,,,,,,,,,,,217.28261641715653,217.2899193339981,217.78276650002226,217.78276650002226,217.8574955840595,217.8574955840595,217.8574955840595,218.92629824997857,right,1.6297369999811053,None,,,,,,,,brian,001,2025-08-19_16h36.51.316,tilt_mocs,2024.2.4,None,2025-08-19 16h37.11.445374 -0400,
-4.222222222222223,-15.0,m3,negs,100,171,171,0,left,1.1303479589987546,None,,,,,,,,,0,171,171,108,218.93426516698673,,,,,,,,,,,,,,,,,,,,,,,,,,,,,,218.92736308416352,218.93426516698673,219.4238436250016,219.4238436250016,219.49571441719308,219.49571441719308,219.49571441719308,220.07634516712278,left,1.1303479589987546,None,,,,,,,,brian,001,2025-08-19_16h36.51.316,tilt_mocs,2024.2.4,None,2025-08-19 16h37.11.445374 -0400,
-0.1388888888888889,0.0,PSE,noss,0,172,172,0,right,1.1863076658919454,None,,,,,,,,,0,172,172,215,220.08416945906356,,,,,,,,,,,,,,,,,,,,,,,,,,,,,,220.0776678340044,220.08416945906356,220.57427466707304,220.57427466707304,220.64718333398923,220.64718333398923,220.64718333398923,221.2760984171182,right,1.1863076658919454,None,,,,,,,,brian,001,2025-08-19_16h36.51.316,tilt_mocs,2024.2.4,None,2025-08-19 16h37.11.445374 -0400,
-1.3611111111111112,0.0,p3,noss,0,173,173,0,right,1.2005408750846982,None,,,,,,,,,0,173,173,234,221.28201120905578,,,,,,,,,,,,,,,,,,,,,,,,,,,,,,221.2772045840975,221.28201120905578,221.77338387514465,221.77338387514465,221.8462878339924,221.8462878339924,221.8462878339924,222.49268500017934,right,1.2005408750846982,None,,,,,,,,brian,001,2025-08-19_16h36.51.316,tilt_mocs,2024.2.4,None,2025-08-19 16h37.11.445374 -0400,
2.5,15.0,p3,poss,100,174,174,0,right,1.1278574590105563,None,,,,,,,,,0,174,174,89,222.4986640419811,,,,,,,,,,,,,,,,,,,,,,,,,,,,,,222.4938017090317,222.4986640419811,222.99084975011647,222.99084975011647,223.06356895901263,223.06356895901263,223.06356895901263,223.63178504211828,right,1.1278574590105563,None,,,,,,,,brian,001,2025-08-19_16h36.51.316,tilt_mocs,2024.2.4,None,2025-08-19 16h37.11.445374 -0400,
-3.2222222222222228,-15.0,m1,negs,100,175,175,0,right,1.076503457967192,None,,,,,,,,,0,175,175,126,223.63990554213524,,,,,,,,,,,,,,,,,,,,,,,,,,,,,,223.63282683398575,223.63990554213524,224.13365470897406,224.13365470897406,224.20762837515213,224.20762837515213,224.20762837515213,224.7265026671812,right,1.076503457967192,None,,,,,,,,brian,001,2025-08-19_16h36.51.316,tilt_mocs,2024.2.4,None,2025-08-19 16h37.11.445374 -0400,
-4.222222222222223,-15.0,m3,negs,100,176,176,0,right,1.2672037910670042,None,,,,,,,,,0,176,176,109,224.73431962518953,,,,,,,,,,,,,,,,,,,,,,,,,,,,,,224.72751445905305,224.73431962518953,225.22435941710137,225.22435941710137,225.29705662513152,225.29705662513152,225.29705662513152,226.00992462504655,right,1.2672037910670042,None,,,,,,,,brian,001,2025-08-19_16h36.51.316,tilt_mocs,2024.2.4,None,2025-08-19 16h37.11.445374 -0400,
0.5,15.0,m3,poss,100,177,177,0,right,1.2717501251026988,None,,,,,,,,,0,177,177,13,226.0176651251968,,,,,,,,,,,,,,,,,,,,,,,,,,,,,,226.01094937510788,226.0176651251968,226.50668104202487,226.50668104202487,226.5799798341468,226.5799798341468,226.5799798341468,227.29321958404034,right,1.2717501251026988,None,,,,,,,,brian,001,2025-08-19_16h36.51.316,tilt_mocs,2024.2.4,None,2025-08-19 16h37.11.445374 -0400,
0.5,15.0,m3,poss,100,178,178,0,right,2.7460579168982804,None,,,,,,,,,0,178,178,9,227.30081733409315,,,,,,,,,,,,,,,,,,,,,,,,,,,,,,227.2942132500466,227.30081733409315,227.7910145840142,227.7910145840142,227.86338750016876,227.86338750016876,227.86338750016876,230.0600924170576,right,2.7460579168982804,None,,,,,,,,brian,001,2025-08-19_16h36.51.316,tilt_mocs,2024.2.4,None,2025-08-19 16h37.11.445374 -0400,
-2.7222222222222228,-15.0,PSE,negs,100,179,179,0,right,1.349911707919091,None,,,,,,,,,0,179,179,144,230.06814195914194,,,,,,,,,,,,,,,,,,,,,,,,,,,,,,230.06109933415428,230.06814195914194,230.55654637515545,230.55654637515545,230.63093541702256,230.63093541702256,230.63093541702256,231.42670925008133,right,1.349911707919091,None,,,,,,,,brian,001,2025-08-19_16h36.51.316,tilt_mocs,2024.2.4,None,2025-08-19 16h37.11.445374 -0400,
-3.722222222222223,-15.0,m2,negs,100,180,180,0,left,1.146648583933711,None,,,,,,,,,0,180,180,117,231.43447491712868,,,,,,,,,,,,,,,,,,,,,,,,,,,,,,231.42768287518993,231.43447491712868,231.9242572921794,231.9242572921794,231.99712050007656,231.99712050007656,231.99712050007656,232.5922797920648,left,1.146648583933711,None,,,,,,,,brian,001,2025-08-19_16h36.51.316,tilt_mocs,2024.2.4,None,2025-08-19 16h37.11.445374 -0400,
-3.722222222222223,-15.0,m2,negs,100,181,181,0,left,1.085077540948987,None,,,,,,,,,0,181,181,113,232.60012050019577,,,,,,,,,,,,,,,,,,,,,,,,,,,,,,232.59346704208292,232.60012050019577,233.09092195914127,233.09092195914127,233.16377020906657,233.16377020906657,233.16377020906657,233.6931385421194,left,1.085077540948987,None,,,,,,,,brian,001,2025-08-19_16h36.51.316,tilt_mocs,2024.2.4,None,2025-08-19 16h37.11.445374 -0400,
0.5,15.0,m3,poss,100,182,182,0,left,1.0088887920137495,None,,,,,,,,,0,182,182,2,233.70172070898116,,,,,,,,,,,,,,,,,,,,,,,,,,,,,,233.69458570913412,233.70172070898116,234.19088920904323,234.19088920904323,234.2638585420791,234.2638585420791,234.2638585420791,234.71331891720183,left,1.0088887920137495,None,,,,,,,,brian,001,2025-08-19_16h36.51.316,tilt_mocs,2024.2.4,None,2025-08-19 16h37.11.445374 -0400,
2.0,15.0,p2,poss,100,183,183,0,right,1.9273090830538422,None,,,,,,,,,0,183,183,72,234.7233771670144,,,,,,,,,,,,,,,,,,,,,,,,,,,,,,234.71429095906205,234.7233771670144,235.20741754211485,235.20741754211485,235.29097154201008,235.2789766250644,235.2789766250644,236.65976362512447,right,1.9273090830538422,None,,,,,,,,brian,001,2025-08-19_16h36.51.316,tilt_mocs,2024.2.4,None,2025-08-19 16h37.11.445374 -0400,
0.5,15.0,m1,poss,100,184,184,0,left,1.2244083750993013,None,,,,,,,,,0,184,184,37,236.66839083400555,,,,,,,,,,,,,,,,,,,,,,,,,,,,,,236.66136900009587,236.66839083400555,237.1575783751905,237.1575783751905,237.2292863749899,237.2292863749899,237.2292863749899,237.89841170911677,left,1.2244083750993013,None,,,,,,,,brian,001,2025-08-19_16h36.51.316,tilt_mocs,2024.2.4,None,2025-08-19 16h37.11.445374 -0400,
0.5,15.0,m1,poss,100,185,185,0,left,3.319408542010933,None,,,,,,,,,0,185,185,29,237.90676395897754,,,,,,,,,,,,,,,,,,,,,,,,,,,,,,237.89963979204185,237.90676395897754,238.39955216716044,238.39955216716044,238.47421741718426,238.47421741718426,238.47421741718426,241.23611175012775,left,3.319408542010933,None,,,,,,,,brian,001,2025-08-19_16h36.51.316,tilt_mocs,2024.2.4,None,2025-08-19 16h37.11.445374 -0400,
-2.2222222222222228,-15.0,p1,negs,100,186,186,0,right,1.141700625186786,None,,,,,,,,,0,186,186,157,241.25765679217875,,,,,,,,,,,,,,,,,,,,,,,,,,,,,,241.23709387518466,241.25765679217875,241.7328457920812,241.7328457920812,241.81388320913538,241.80776200001128,241.80776200001128,242.40980808413588,right,1.141700625186786,None,,,,,,,,brian,001,2025-08-19_16h36.51.316,tilt_mocs,2024.2.4,None,2025-08-19 16h37.11.445374 -0400,
-1.2222222222222228,-15.0,p3,negs,100,187,187,0,right,0.9917147920932621,None,,,,,,,,,0,187,187,182,242.41781862499192,,,,,,,,,,,,,,,,,,,,,,,,,,,,,,242.41094429208897,242.41781862499192,242.90765108400956,242.90765108400956,242.98071095906198,242.98071095906198,242.98071095906198,243.41546833398752,right,0.9917147920932621,None,,,,,,,,brian,001,2025-08-19_16h36.51.316,tilt_mocs,2024.2.4,None,2025-08-19 16h37.11.445374 -0400,
2.0,15.0,p2,poss,100,188,188,0,right,1.308761125197634,None,,,,,,,,,0,188,188,80,243.4236875839997,,,,,,,,,,,,,,,,,,,,,,,,,,,,,,243.41667933412828,243.4236875839997,243.91551479208283,243.91551479208283,243.9908462089952,243.9908462089952,243.9908462089952,244.7416285839863,right,1.308761125197634,None,,,,,,,,brian,001,2025-08-19_16h36.51.316,tilt_mocs,2024.2.4,None,2025-08-19 16h37.11.445374 -0400,
-3.2222222222222228,-15.0,m1,negs,100,189,189,0,left,2.2631972909439355,None,,,,,,,,,0,189,189,133,244.74626683420502,,,,,,,,,,,,,,,,,,,,,,,,,,,,,,244.74202841706574,244.74626683420502,245.23278345912695,245.23278345912695,245.31186833418906,245.30746120912954,245.30746120912954,247.0114957501646,left,2.2631972909439355,None,,,,,,,,brian,001,2025-08-19_16h36.51.316,tilt_mocs,2024.2.4,None,2025-08-19 16h37.11.445374 -0400,
-4.222222222222223,-15.0,m3,negs,100,190,190,0,left,1.0863901250995696,None,,,,,,,,,0,190,190,107,247.02315337513573,,,,,,,,,,,,,,,,,,,,,,,,,,,,,,247.01196558400989,247.02315337513573,247.5074826250784,247.5074826250784,247.57867233408615,247.57867233408615,247.57867233408615,248.11462616710924,left,1.0863901250995696,None,,,,,,,,brian,001,2025-08-19_16h36.51.316,tilt_mocs,2024.2.4,None,2025-08-19 16h37.11.445374 -0400,
-2.7222222222222228,-15.0,PSE,negs,100,191,191,0,left,1.1694693339522928,None,,,,,,,,,0,191,191,148,248.12317320914008,,,,,,,,,,,,,,,,,,,,,,,,,,,,,,248.11564700002782,248.12317320914008,248.606673625065,248.606673625065,248.69077866710722,248.67918229219504,248.67918229219504,249.29833629215136,left,1.1694693339522928,None,,,,,,,,brian,001,2025-08-19_16h36.51.316,tilt_mocs,2024.2.4,None,2025-08-19 16h37.11.445374 -0400,
-1.6388888888888888,0.0,m3,noss,0,192,192,0,left,0.9959790408611298,None,,,,,,,,,0,192,192,199,249.30643629212864,,,,,,,,,,,,,,,,,,,,,,,,,,,,,,249.2996104999911,249.30643629212864,249.7992239589803,249.7992239589803,249.87410783418454,249.87410783418454,249.87410783418454,250.30900329211727,left,0.9959790408611298,None,,,,,,,,brian,001,2025-08-19_16h36.51.316,tilt_mocs,2024.2.4,None,2025-08-19 16h37.11.445374 -0400,
0.0,15.0,m2,poss,100,193,193,0,left,1.1099380829837173,None,,,,,,,,,0,193,193,17,250.31645562499762,,,,,,,,,,,,,,,,,,,,,,,,,,,,,,250.30992975016125,250.31645562499762,250.8076548341196,250.8076548341196,250.87976054218598,250.87976054218598,250.87976054218598,251.43146700016223,left,1.1099380829837173,None,,,,,,,,brian,001,2025-08-19_16h36.51.316,tilt_mocs,2024.2.4,None,2025-08-19 16h37.11.445374 -0400,
1.0,15.0,PSE,poss,100,194,194,0,left,1.019567457959056,None,,,,,,,,,0,194,194,47,251.43995725014247,,,,,,,,,,,,,,,,,,,,,,,,,,,,,,251.43248308403417,251.43995725014247,251.93289295909926,251.93289295909926,252.00769704207778,252.00769704207778,252.00769704207778,252.46482512517832,left,1.019567457959056,None,,,,,,,,brian,001,2025-08-19_16h36.51.316,tilt_mocs,2024.2.4,None,2025-08-19 16h37.11.445374 -0400,
0.5,15.0,m1,poss,100,195,195,0,left,1.0537655409425497,None,,,,,,,,,0,195,195,30,252.47309270920232,,,,,,,,,,,,,,,,,,,,,,,,,,,,,,252.4658427920658,252.47309270920232,252.95751162501983,252.95751162501983,253.04073275020346,253.02880420908332,253.02880420908332,253.53118812502362,left,1.0537655409425497,None,,,,,,,,brian,001,2025-08-19_16h36.51.316,tilt_mocs,2024.2.4,None,2025-08-19 16h37.11.445374 -0400,
1.5,15.0,p1,poss,100,196,196,0,left,1.041361042065546,None,,,,,,,,,0,196,196,57,253.5397297090385,,,,,,,,,,,,,,,,,,,,,,,,,,,,,,253.53213370917365,253.5397297090385,254.03173441719264,254.03173441719264,254.10739141702652,254.10739141702652,254.10739141702652,254.59303062502295,left,1.041361042065546,None,,,,,,,,brian,001,2025-08-19_16h36.51.316,tilt_mocs,2024.2.4,None,2025-08-19 16h37.11.445374 -0400,
-1.2222222222222228,-15.0,p3,negs,100,197,197,0,right,0.9963642079383135,None,,,,,,,,,0,197,197,193,254.60157195897773,,,,,,,,,,,,,,,,,,,,,,,,,,,,,,254.59417641698383,254.60157195897773,255.0907498341985,255.0907498341985,255.1634597920347,255.1634597920347,255.1634597920347,255.60936150001362,right,0.9963642079383135,None,,,,,,,,brian,001,2025-08-19_16h36.51.316,tilt_mocs,2024.2.4,None,2025-08-19 16h37.11.445374 -0400,
-0.8611111111111112,0.0,p2,noss,0,198,198,0,left,3.227522292174399,None,,,,,,,,,0,198,198,231,255.61736366711557,,,,,,,,,,,,,,,,,,,,,,,,,,,,,,255.6106228341814,255.61736366711557,256.10775733413175,256.10775733413175,256.1805086249951,256.1805086249951,256.1805086249951,258.8485863341484,left,3.227522292174399,None,,,,,,,,brian,001,2025-08-19_16h36.51.316,tilt_mocs,2024.2.4,None,2025-08-19 16h37.11.445374 -0400,
1.5,15.0,p1,poss,100,199,199,0,left,1.0916265831328928,None,,,,,,,,,0,199,199,59,258.85646187514067,,,,,,,,,,,,,,,,,,,,,,,,,,,,,,258.8495514590759,258.85646187514067,259.35053837508895,259.35053837508895,259.42431887518615,259.42431887518615,259.42431887518615,259.95913558406755,left,1.0916265831328928,None,,,,,,,,brian,001,2025-08-19_16h36.51.316,tilt_mocs,2024.2.4,None,2025-08-19 16h37.11.445374 -0400,
0.5,15.0,m1,poss,100,200,200,0,left,1.0092497910372913,None,,,,,,,,,0,200,200,39,259.96686904202215,,,,,,,,,,,,,,,,,,,,,,,,,,,,,,259.9600781670306,259.96686904202215,260.4570510000922,260.4570510000922,260.5281633341219,260.5281633341219,260.5281633341219,260.98157395911403,left,1.0092497910372913,None,,,,,,,,brian,001,2025-08-19_16h36.51.316,tilt_mocs,2024.2.4,None,2025-08-19 16h37.11.445374 -0400,
0.5,15.0,m1,poss,100,201,201,0,left,1.0200810839887708,None,,,,,,,,,0,201,201,35,260.9895454591606,,,,,,,,,,,,,,,,,,,,,,,,,,,,,,260.9827938750386,260.9895454591606,261.48276391718537,261.48276391718537,261.5575017919764,261.5575017919764,261.5575017919764,262.01494158408605,left,1.0200810839887708,None,,,,,,,,brian,001,2025-08-19_16h36.51.316,tilt_mocs,2024.2.4,None,2025-08-19 16h37.11.445374 -0400,
-2.2222222222222228,-15.0,p1,negs,100,202,202,0,right,1.0364919169805944,None,,,,,,,,,0,202,202,162,262.0230768341571,,,,,,,,,,,,,,,,,,,,,,,,,,,,,,262.0158723751083,262.0230768341571,262.51605508406647,262.51605508406647,262.5908005000092,262.5908005000092,262.5908005000092,263.0641094171442,right,1.0364919169805944,None,,,,,,,,brian,001,2025-08-19_16h36.51.316,tilt_mocs,2024.2.4,None,2025-08-19 16h37.11.445374 -0400,
2.0,15.0,p2,poss,100,203,203,0,right,1.0416649170219898,None,,,,,,,,,0,203,203,79,263.0730376250576,,,,,,,,,,,,,,,,,,,,,,,,,,,,,,263.06508995918557,263.0730376250576,263.56553212506697,263.56553212506697,263.64072787505575,263.64072787505575,263.64072787505575,264.1265498751309,right,1.0416649170219898,None,,,,,,,,brian,001,2025-08-19_16h36.51.316,tilt_mocs,2024.2.4,None,2025-08-19 16h37.11.445374 -0400,
2.5,15.0,p3,poss,100,204,204,0,right,1.054661124944687,None,,,,,,,,,0,204,204,93,264.13296616706066,,,,,,,,,,,,,,,,,,,,,,,,,,,,,,264.1274752500467,264.13296616706066,264.6231657091994,264.6231657091994,264.6975432091858,264.6975432091858,264.6975432091858,265.1929383750539,right,1.054661124944687,None,,,,,,,,brian,001,2025-08-19_16h36.51.316,tilt_mocs,2024.2.4,None,2025-08-19 16h37.11.445374 -0400,
-1.2222222222222228,-15.0,p3,negs,100,205,205,0,right,1.0515386250335723,None,,,,,,,,,0,205,205,186,265.20046183420345,,,,,,,,,,,,,,,,,,,,,,,,,,,,,,265.19392745918594,265.20046183420345,265.6904282090254,265.6904282090254,265.7628580001183,265.7628580001183,265.7628580001183,266.2599480841309,right,1.0515386250335723,None,,,,,,,,brian,001,2025-08-19_16h36.51.316,tilt_mocs,2024.2.4,None,2025-08-19 16h37.11.445374 -0400,
-1.2222222222222228,-15.0,p3,negs,100,206,206,0,right,1.064646708080545,None,,,,,,,,,0,206,206,191,266.26638633408584,,,,,,,,,,,,,,,,,,,,,,,,,,,,,,266.2611142091919,266.26638633408584,266.75752766709775,266.75752766709775,266.8302263750229,266.8302263750229,266.8302263750229,267.3428957501892,right,1.064646708080545,None,,,,,,,,brian,001,2025-08-19_16h36.51.316,tilt_mocs,2024.2.4,None,2025-08-19 16h37.11.445374 -0400,
0.0,15.0,m2,poss,100,207,207,0,left,1.055280749918893,None,,,,,,,,,0,207,207,16,267.35060645919293,,,,,,,,,,,,,,,,,,,,,,,,,,,,,,267.3439574171789,267.35060645919293,267.8403234591242,267.8403234591242,267.91361100017093,267.91361100017093,267.91361100017093,268.4097672919743,left,1.055280749918893,None,,,,,,,,brian,001,2025-08-19_16h36.51.316,tilt_mocs,2024.2.4,None,2025-08-19 16h37.11.445374 -0400,
-1.2222222222222228,-15.0,p3,negs,100,208,208,0,right,0.9977793341968209,None,,,,,,,,,0,208,208,192,268.4180758751463,,,,,,,,,,,,,,,,,,,,,,,,,,,,,,268.41098179202527,268.4180758751463,268.90710370917805,268.90710370917805,268.98036612500437,268.98036612500437,268.98036612500437,269.42620816710405,right,0.9977793341968209,None,,,,,,,,brian,001,2025-08-19_16h36.51.316,tilt_mocs,2024.2.4,None,2025-08-19 16h37.11.445374 -0400,
-1.1388888888888888,0.0,m2,noss,0,209,209,0,right,2.5339862920809537,None,,,,,,,,,0,209,209,204,269.43452220899053,,,,,,,,,,,,,,,,,,,,,,,,,,,,,,269.42763912514783,269.43452220899053,269.9232793340925,269.9232793340925,269.9968732499983,269.9968732499983,269.9968732499983,271.9766587500926,right,2.5339862920809537,None,,,,,,,,brian,001,2025-08-19_16h36.51.316,tilt_mocs,2024.2.4,None,2025-08-19 16h37.11.445374 -0400,
-0.3611111111111111,0.0,p1,noss,0,210,210,0,left,1.1500734169967473,None,,,,,,,,,0,210,210,222,271.98489283397794,,,,,,,,,,,,,,,,,,,,,,,,,,,,,,271.9777087501716,271.98489283397794,272.4740656251088,272.4740656251088,272.5465590420645,272.5465590420645,272.5465590420645,273.14317620918155,left,1.1500734169967473,None,,,,,,,,brian,001,2025-08-19_16h36.51.316,tilt_mocs,2024.2.4,None,2025-08-19 16h37.11.445374 -0400,
-4.222222222222223,-15.0,m3,negs,100,211,211,0,left,0.9947910411283374,None,,,,,,,,,0,211,211,111,273.15143783413805,,,,,,,,,,,,,,,,,,,,,,,,,,,,,,273.1447638750542,273.15143783413805,273.6406651251018,273.6406651251018,273.7127122920938,273.7127122920938,273.7127122920938,274.1483941671904,left,0.9947910411283374,None,,,,,,,,brian,001,2025-08-19_16h36.51.316,tilt_mocs,2024.2.4,None,2025-08-19 16h37.11.445374 -0400,
2.5,15.0,p3,poss,100,212,212,0,left,1.0137666671071202,None,,,,,,,,,0,212,212,92,274.15658937511034,,,,,,,,,,,,,,,,,,,,,,,,,,,,,,274.14943083398975,274.15658937511034,274.64914933405817,274.64914933405817,274.72406741720624,274.72406741720624,274.72406741720624,275.1760723341722,left,1.0137666671071202,None,,,,,,,,brian,001,2025-08-19_16h36.51.316,tilt_mocs,2024.2.4,None,2025-08-19 16h37.11.445374 -0400,
1.0,15.0,PSE,poss,100,213,213,0,left,1.0630564170423895,None,,,,,,,,,0,213,213,44,275.1837310420815,,,,,,,,,,,,,,,,,,,,,,,,,,,,,,275.1770322090015,275.1837310420815,275.67410241719335,275.67410241719335,275.7459231251851,275.7459231251851,275.7459231251851,276.2596125002019,left,1.0630564170423895,None,,,,,,,,brian,001,2025-08-19_16h36.51.316,tilt_mocs,2024.2.4,None,2025-08-19 16h37.11.445374 -0400,
-1.3611111111111112,0.0,p3,noss,0,214,214,0,left,1.0086406669579446,None,,,,,,,,,0,214,214,232,276.267581500113,,,,,,,,,,,,,,,,,,,,,,,,,,,,,,276.260798209114,276.267581500113,276.75691904197447,276.75691904197447,276.82898991717957,276.82898991717957,276.82898991717957,277.28190616704524,left,1.0086406669579446,None,,,,,,,,brian,001,2025-08-19_16h36.51.316,tilt_mocs,2024.2.4,None,2025-08-19 16h37.11.445374 -0400,
0.0,15.0,m2,poss,100,215,215,0,left,0.9775321250781417,None,,,,,,,,,0,215,215,22,277.2895267091226,,,,,,,,,,,,,,,,,,,,,,,,,,,,,,277.28286170912907,277.2895267091226,277.7823024590034,277.7823024590034,277.8574832091108,277.8574832091108,277.8574832091108,278.2761934590526,left,0.9775321250781417,None,,,,,,,,brian,001,2025-08-19_16h36.51.316,tilt_mocs,2024.2.4,None,2025-08-19 16h37.11.445374 -0400,
0.5,15.0,m3,poss,100,216,216,0,left,1.0107868341729045,None,,,,,,,,,0,216,216,11,278.28390695899725,,,,,,,,,,,,,,,,,,,,,,,,,,,,,,278.277160000056,278.28390695899725,278.7740686670877,278.7740686670877,278.8469732501544,278.8469732501544,278.8469732501544,279.29785191710107,left,1.0107868341729045,None,,,,,,,,brian,001,2025-08-19_16h36.51.316,tilt_mocs,2024.2.4,None,2025-08-19 16h37.11.445374 -0400,
2.5,15.0,p3,poss,100,217,217,0,right,1.202378832967952,None,,,,,,,,,0,217,217,94,279.3064886671491,,,,,,,,,,,,,,,,,,,,,,,,,,,,,,279.298881374998,279.3064886671491,279.7970211249776,279.7970211249776,279.8739007501863,279.8739007501863,279.8739007501863,280.51141916704364,right,1.202378832967952,None,,,,,,,,brian,001,2025-08-19_16h36.51.316,tilt_mocs,2024.2.4,None,2025-08-19 16h37.11.445374 -0400,
0.0,15.0,m2,poss,100,218,218,0,left,1.2531761249992996,None,,,,,,,,,0,218,218,24,280.52300125011243,,,,,,,,,,,,,,,,,,,,,,,,,,,,,,280.51184704201296,280.52300125011243,281.0069239169825,281.0069239169825,281.0898711672053,281.0775118339807,281.0775118339807,281.7810772920493,left,1.2531761249992996,None,,,,,,,,brian,001,2025-08-19_16h36.51.316,tilt_mocs,2024.2.4,None,2025-08-19 16h37.11.445374 -0400,
1.0,15.0,PSE,poss,100,219,219,0,left,2.199499874841422,None,,,,,,,,,0,219,219,42,281.78952683415264,,,,,,,,,,,,,,,,,,,,,,,,,,,,,,281.7821237919852,281.78952683415264,282.2817904590629,282.2817904590629,282.3574107091408,282.3574107091408,282.3574107091408,283.9933932500426,left,2.199499874841422,None,,,,,,,,brian,001,2025-08-19_16h36.51.316,tilt_mocs,2024.2.4,None,2025-08-19 16h37.11.445374 -0400,
-1.7222222222222228,-15.0,p2,negs,100,220,220,0,right,1.0250230829697102,None,,,,,,,,,0,220,220,176,284.00174495903775,,,,,,,,,,,,,,,,,,,,,,,,,,,,,,283.9948343751021,284.00174495903775,284.49072687514126,284.49072687514126,284.5636756250169,284.5636756250169,284.5636756250169,285.0319227091968,right,1.0250230829697102,None,,,,,,,,brian,001,2025-08-19_16h36.51.316,tilt_mocs,2024.2.4,None,2025-08-19 16h37.11.445374 -0400,
-3.722222222222223,-15.0,m2,negs,100,221,221,0,right,1.2134122089482844,None,,,,,,,,,0,221,221,115,285.0397039591335,,,,,,,,,,,,,,,,,,,,,,,,,,,,,,285.0329022500664,285.0397039591335,285.53218570910394,285.53218570910394,285.60735170915723,285.60735170915723,285.60735170915723,286.2591278341133,right,1.2134122089482844,None,,,,,,,,brian,001,2025-08-19_16h36.51.316,tilt_mocs,2024.2.4,None,2025-08-19 16h37.11.445374 -0400,
2.0,15.0,p2,poss,100,222,222,0,right,1.0210486671421677,None,,,,,,,,,0,222,222,75,286.26702591707,,,,,,,,,,,,,,,,,,,,,,,,,,,,,,286.26015770900995,286.26702591707,286.7567333751358,286.7567333751358,286.8298322921619,286.8298322921619,286.8298322921619,287.2925558341667,right,1.0210486671421677,None,,,,,,,,brian,001,2025-08-19_16h36.51.316,tilt_mocs,2024.2.4,None,2025-08-19 16h37.11.445374 -0400,
0.0,15.0,m2,poss,100,223,223,0,left,1.438447583001107,None,,,,,,,,,0,223,223,15,287.30008191708475,,,,,,,,,,,,,,,,,,,,,,,,,,,,,,287.2934820000082,287.30008191708475,287.7907500001602,287.7907500001602,287.86341654206626,287.86341654206626,287.86341654206626,288.7429874171503,left,1.438447583001107,None,,,,,,,,brian,001,2025-08-19_16h36.51.316,tilt_mocs,2024.2.4,None,2025-08-19 16h37.11.445374 -0400,
0.0,15.0,m2,poss,100,224,224,0,left,1.0254849588964134,None,,,,,,,,,0,224,224,23,288.75082066701725,,,,,,,,,,,,,,,,,,,,,,,,,,,,,,288.743957917206,288.75082066701725,289.2407815421466,289.2407815421466,289.31125437514856,289.31125437514856,289.31125437514856,289.78003816702403,left,1.0254849588964134,None,,,,,,,,brian,001,2025-08-19_16h36.51.316,tilt_mocs,2024.2.4,None,2025-08-19 16h37.11.445374 -0400,
-4.222222222222223,-15.0,m3,negs,100,225,225,0,left,1.0412182500585914,None,,,,,,,,,0,225,225,110,289.78986479202285,,,,,,,,,,,,,,,,,,,,,,,,,,,,,,289.78039500000887,289.78986479202285,290.2736621249933,290.2736621249933,290.35752445901744,290.3460145420395,290.3460145420395,290.8422434590757,left,1.0412182500585914,None,,,,,,,,brian,001,2025-08-19_16h36.51.316,tilt_mocs,2024.2.4,None,2025-08-19 16h37.11.445374 -0400,
-0.1388888888888889,0.0,PSE,noss,0,226,226,0,right,1.0927949592005461,None,,,,,,,,,0,226,226,214,290.8502447500359,,,,,,,,,,,,,,,,,,,,,,,,,,,,,,290.8432160841767,290.8502447500359,291.3408903751988,291.3408903751988,291.4136621670332,291.4136621670332,291.4136621670332,291.9478400000371,right,1.0927949592005461,None,,,,,,,,brian,001,2025-08-19_16h36.51.316,tilt_mocs,2024.2.4,None,2025-08-19 16h37.11.445374 -0400,
-0.1388888888888889,0.0,PSE,noss,0,227,227,0,right,1.563973667100072,None,,,,,,,,,0,227,227,216,291.9563494171016,,,,,,,,,,,,,,,,,,,,,,,,,,,,,,291.94904900016263,291.9563494171016,292.44946620916016,292.44946620916016,292.52417733403854,292.52417733403854,292.52417733403854,293.52615737519227,right,1.563973667100072,None,,,,,,,,brian,001,2025-08-19_16h36.51.316,tilt_mocs,2024.2.4,None,2025-08-19 16h37.11.445374 -0400,
-1.2222222222222228,-15.0,p3,negs,100,228,228,0,right,1.0588069160003215,None,,,,,,,,,0,228,228,188,293.53403850016184,,,,,,,,,,,,,,,,,,,,,,,,,,,,,,293.5271598340478,293.53403850016184,294.02338604209945,294.02338604209945,294.0964087091852,294.0964087091852,294.0964087091852,294.59862712514587,right,1.0588069160003215,None,,,,,,,,brian,001,2025-08-19_16h36.51.316,tilt_mocs,2024.2.4,None,2025-08-19 16h37.11.445374 -0400,
-2.2222222222222228,-15.0,p1,negs,100,229,229,0,right,1.1229589579161257,None,,,,,,,,,0,229,229,166,294.6070669591427,,,,,,,,,,,,,,,,,,,,,,,,,,,,,,294.5999198751524,294.6070669591427,295.09884450002573,295.09884450002573,295.1740928750951,295.1740928750951,295.1740928750951,295.74310662504286,right,1.1229589579161257,None,,,,,,,,brian,001,2025-08-19_16h36.51.316,tilt_mocs,2024.2.4,None,2025-08-19 16h37.11.445374 -0400,
-1.7222222222222228,-15.0,p2,negs,100,230,230,0,right,1.0152976249810308,None,,,,,,,,,0,230,230,180,295.7515779591631,,,,,,,,,,,,,,,,,,,,,,,,,,,,,,295.7443127091974,295.7515779591631,296.2408154590521,296.2408154590521,296.3133110420313,296.3133110420313,296.3133110420313,296.7762654591352,right,1.0152976249810308,None,,,,,,,,brian,001,2025-08-19_16h36.51.316,tilt_mocs,2024.2.4,None,2025-08-19 16h37.11.445374 -0400,
2.0,15.0,p2,poss,100,231,231,0,right,1.0465934169478714,None,,,,,,,,,0,231,231,77,296.78446483402513,,,,,,,,,,,,,,,,,,,,,,,,,,,,,,296.77727320906706,296.78446483402513,297.2742016671691,297.2742016671691,297.3465662919916,297.3465662919916,297.3465662919916,297.84233820904046,right,1.0465934169478714,None,,,,,,,,brian,001,2025-08-19_16h36.51.316,tilt_mocs,2024.2.4,None,2025-08-19 16h37.11.445374 -0400,
-3.722222222222223,-15.0,m2,negs,100,232,232,0,right,1.391897208057344,None,,,,,,,,,0,232,232,124,297.850535125006,,,,,,,,,,,,,,,,,,,,,,,,,,,,,,297.84333920897916,297.850535125006,298.34070791699924,298.34070791699924,298.41309066698886,298.41309066698886,298.41309066698886,299.24755691713654,right,1.391897208057344,None,,,,,,,,brian,001,2025-08-19_16h36.51.316,tilt_mocs,2024.2.4,None,2025-08-19 16h37.11.445374 -0400,
2.0,15.0,p2,poss,100,233,233,0,right,1.0438818749971688,None,,,,,,,,,0,233,233,74,299.25642175017856,,,,,,,,,,,,,,,,,,,,,,,,,,,,,,299.2488143341616,299.25642175017856,299.74992266716436,299.74992266716436,299.82471875008196,299.8305215840228,299.8305215840228,300.3098971671425,right,1.0438818749971688,None,,,,,,,,brian,001,2025-08-19_16h36.51.316,tilt_mocs,2024.2.4,None,2025-08-19 16h37.11.445374 -0400,
-1.7222222222222228,-15.0,p2,negs,100,234,234,0,right,1.0088892499916255,None,,,,,,,,,0,234,234,177,300.3179107091855,,,,,,,,,,,,,,,,,,,,,,,,,,,,,,300.31118295900524,300.3179107091855,300.80671729217283,300.80671729217283,300.87914966698736,300.87914966698736,300.87914966698736,301.3311245001387,right,1.0088892499916255,None,,,,,,,,brian,001,2025-08-19_16h36.51.316,tilt_mocs,2024.2.4,None,2025-08-19 16h37.11.445374 -0400,
-4.222222222222223,-15.0,m3,negs,100,235,235,0,left,2.675093207973987,None,,,,,,,,,0,235,235,103,301.3395953341387,,,,,,,,,,,,,,,,,,,,,,,,,,,,,,301.3322648340836,301.3395953341387,301.83196579199284,301.83196579199284,301.9073959591333,301.9073959591333,301.9073959591333,304.0263099591248,left,2.675093207973987,None,,,,,,,,brian,001,2025-08-19_16h36.51.316,tilt_mocs,2024.2.4,None,2025-08-19 16h37.11.445374 -0400,
