center,surround,type,surr_type,surr_opacity,thisN,thisTrialN,thisRepN,resp.keys,resp.rt,resp.duration,practice_no_time.thisRepN,practice_no_time.thisTrialN,practice_no_time.thisN,practice_no_time.thisIndex,practice_timed.thisRepN,practice_timed.thisTrialN,practice_timed.thisN,practice_timed.thisIndex,trials.thisRepN,trials.thisTrialN,trials.thisN,trials.thisIndex,thisRow.t,notes,instr.started,text_5.started,key_resp_2.started,instr.stopped,key_resp_2.keys,key_resp_2.rt,key_resp_2.duration,instr2.started,text_6.started,key_resp_6.started,instr2.stopped,key_resp_6.keys,key_resp_6.rt,key_resp_6.duration,instr3.started,text_8.started,key_resp_5.started,instr3.stopped,key_resp_5.keys,key_resp_5.rt,key_resp_5.duration,start_instr.started,text_13.started,key_resp_8.started,start_instr.stopped,key_resp_8.keys,key_resp_8.rt,key_resp_8.duration,trial.started,resp.started,surround_grating.started,center_grating.started,text_4.started,surround_grating.stopped,center_grating.stopped,trial.stopped,trials.resp.keys,trials.resp.rt,trials.resp.duration,end.started,text_14.started,key_resp.started,end.stopped,key_resp.keys,key_resp.rt,key_resp.duration,participant,session,date,expName,psychopyVersion,frameRate,expStart,
,,,,,,,,,,,,,,,,,,,,,,,,,0.009448250057175756,0.02481924998573959,0.02481924998573959,3.9883045421447605,space,3.928500082809478,None,,,,,,,,,,,,,,,,,,,,,,,,,,,,,,,,,,,,,,,,brian,001,2025-08-19_16h26.13.057,tilt_mocs,2024.2.4,None,2025-08-19 16h27.16.922702 -0400,
,,,,,,,,,,,,,,,,,,,,,,,,,,,,,,,,3.988346334081143,4.006681250175461,4.006681250175461,5.066808042116463,space,1.0524304590653628,None,,,,,,,,,,,,,,,,,,,,,,,,,,,,,,,,,brian,001,2025-08-19_16h26.13.057,tilt_mocs,2024.2.4,None,2025-08-19 16h27.16.922702 -0400,
,,,,,,,,,,,,,,,,,,,,,,,,,,,,,,,,,,,,,,,5.10512191709131,5.11413291702047,5.11413291702047,7.2166317091323435,space,2.0968229160644114,None,,,,,,,,,,,,,,,,,,,,,,,,,,brian,001,2025-08-19_16h26.13.057,tilt_mocs,2024.2.4,None,2025-08-19 16h27.16.922702 -0400,
,,,,,,,,,,,,,,,,,,,,,,,,,,,,,,,,,,,,,,,,,,,,,,7.223837209166959,7.230511334026232,7.230511334026232,9.588348917197436,space,2.35394183290191,None,,,,,,,,,,,,,,,,,,,brian,001,2025-08-19_16h26.13.057,tilt_mocs,2024.2.4,None,2025-08-19 16h27.16.922702 -0400,
1.1666666666666663,15.0,m2,poss,100,0,0,0,right,2.88512295903638,None,,,,,,,,,0,0,0,1,9.614860250148922,,,,,,,,,,,,,,,,,,,,,,,,,,,,,,9.610321709187701,9.614860250148922,10.104350292123854,10.104350292123854,10.164006209000945,10.181020375108346,10.181020375108346,12.505800292128697,right,2.88512295903638,None,,,,,,,,brian,001,2025-08-19_16h26.13.057,tilt_mocs,2024.2.4,None,2025-08-19 16h27.16.922702 -0400,
-3.75,-15.0,PSE,negs,100,1,1,0,left,1.204512916970998,None,,,,,,,,,0,1,1,91,12.626479250146076,,,,,,,,,,,,,,,,,,,,,,,,,,,,,,12.506968459114432,12.626479250146076,13.001916209002957,13.001916209002957,13.084862750023603,13.067186709027737,13.067186709027737,13.8340766672045,left,1.204512916970998,None,,,,,,,,brian,001,2025-08-19_16h26.13.057,tilt_mocs,2024.2.4,None,2025-08-19 16h27.16.922702 -0400,
-4.25,-15.0,m1,negs,100,2,2,0,left,1.1625180840492249,None,,,,,,,,,0,2,2,83,13.842873000074178,,,,,,,,,,,,,,,,,,,,,,,,,,,,,,13.835052334005013,13.842873000074178,14.331106959143654,14.331106959143654,14.403092209016904,14.403092209016904,14.403092209016904,15.016940292203799,left,1.1625180840492249,None,,,,,,,,brian,001,2025-08-19_16h26.13.057,tilt_mocs,2024.2.4,None,2025-08-19 16h27.16.922702 -0400,
-2.444444444444444,0.0,m2,noss,0,3,3,0,left,0.9892032500356436,None,,,,,,,,,0,3,3,123,15.024245917098597,,,,,,,,,,,,,,,,,,,,,,,,,,,,,,15.018158625112846,15.024245917098597,15.514487584121525,15.514487584121525,15.586122875101864,15.586122875101864,15.586122875101864,16.016731209121644,left,0.9892032500356436,None,,,,,,,,brian,001,2025-08-19_16h26.13.057,tilt_mocs,2024.2.4,None,2025-08-19 16h27.16.922702 -0400,
3.1666666666666665,15.0,p1,poss,100,4,4,0,right,1.1059325421229005,None,,,,,,,,,0,4,4,44,16.02445554221049,,,,,,,,,,,,,,,,,,,,,,,,,,,,,,16.018230042187497,16.02445554221049,16.514486375031993,16.514486375031993,16.586200084071606,16.586200084071606,16.586200084071606,17.13343333406374,right,1.1059325421229005,None,,,,,,,,brian,001,2025-08-19_16h26.13.057,tilt_mocs,2024.2.4,None,2025-08-19 16h27.16.922702 -0400,
1.1666666666666663,15.0,m2,poss,100,5,5,0,left,1.0103541670832783,None,,,,,,,,,0,5,5,10,17.140955709153786,,,,,,,,,,,,,,,,,,,,,,,,,,,,,,17.134617125149816,17.140955709153786,17.63110245903954,17.63110245903954,17.705494209192693,17.705494209192693,17.705494209192693,18.154241417068988,left,1.0103541670832783,None,,,,,,,,brian,001,2025-08-19_16h26.13.057,tilt_mocs,2024.2.4,None,2025-08-19 16h27.16.922702 -0400,
-5.25,-15.0,m2,negs,100,6,6,0,left,1.0278399160597473,None,,,,,,,,,0,6,6,70,18.164305542130023,,,,,,,,,,,,,,,,,,,,,,,,,,,,,,18.15499966708012,18.164305542130023,18.6552619591821,18.6552619591821,18.7312849170994,18.7312849170994,18.7312849170994,19.200370542006567,left,1.0278399160597473,None,,,,,,,,brian,001,2025-08-19_16h26.13.057,tilt_mocs,2024.2.4,None,2025-08-19 16h27.16.922702 -0400,
-3.25,-15.0,p1,negs,100,7,7,0,left,1.1195896668359637,None,,,,,,,,,0,7,7,97,19.207763750106096,,,,,,,,,,,,,,,,,,,,,,,,,,,,,,19.201561167137697,19.207763750106096,19.69783112499863,19.69783112499863,19.77018558420241,19.77018558420241,19.77018558420241,20.333371500018984,left,1.1195896668359637,None,,,,,,,,brian,001,2025-08-19_16h26.13.057,tilt_mocs,2024.2.4,None,2025-08-19 16h27.16.922702 -0400,
1.1666666666666663,15.0,m2,poss,100,8,8,0,left,1.0526962499134243,None,,,,,,,,,0,8,8,5,20.340686917072162,,,,,,,,,,,,,,,,,,,,,,,,,,,,,,20.334562459029257,20.340686917072162,20.83116037514992,20.83116037514992,20.903097625123337,20.903097625123337,20.903097625123337,21.40021525020711,left,1.0526962499134243,None,,,,,,,,brian,001,2025-08-19_16h26.13.057,tilt_mocs,2024.2.4,None,2025-08-19 16h27.16.922702 -0400,
-0.4444444444444443,0.0,p1,noss,0,9,9,0,left,1.0669367499649525,None,,,,,,,,,0,9,9,143,21.407457625027746,,,,,,,,,,,,,,,,,,,,,,,,,,,,,,21.40140787512064,21.407457625027746,21.897781792096794,21.897781792096794,21.97008787514642,21.97008787514642,21.97008787514642,22.483393042115495,left,1.0669367499649525,None,,,,,,,,brian,001,2025-08-19_16h26.13.057,tilt_mocs,2024.2.4,None,2025-08-19 16h27.16.922702 -0400,
-2.25,-15.0,p2,negs,100,10,10,0,right,1.0763862079475075,None,,,,,,,,,0,10,10,110,22.49103279202245,,,,,,,,,,,,,,,,,,,,,,,,,,,,,,22.484670417150483,22.49103279202245,22.981207709060982,22.981207709060982,23.053093458991498,23.053093458991498,23.053093458991498,23.57286737510003,right,1.0763862079475075,None,,,,,,,,brian,001,2025-08-19_16h26.13.057,tilt_mocs,2024.2.4,None,2025-08-19 16h27.16.922702 -0400,
2.1666666666666665,15.0,m1,poss,100,11,11,0,left,1.0567563748918474,None,,,,,,,,,0,11,11,13,23.581122459145263,,,,,,,,,,,,,,,,,,,,,,,,,,,,,,23.57405879208818,23.581122459145263,24.071604083990678,24.071604083990678,24.147802375024185,24.147802375024185,24.147802375024185,24.6502807920333,left,1.0567563748918474,None,,,,,,,,brian,001,2025-08-19_16h26.13.057,tilt_mocs,2024.2.4,None,2025-08-19 16h27.16.922702 -0400,
-0.9444444444444444,0.0,PSE,noss,0,12,12,0,left,1.0281200411263853,None,,,,,,,,,0,12,12,133,24.6577102500014,,,,,,,,,,,,,,,,,,,,,,,,,,,,,,24.651492959121242,24.6577102500014,25.164747417205945,25.164747417205945,25.22013425012119,25.235977875068784,25.235977875068784,25.68842333415523,left,1.0281200411263853,None,,,,,,,,brian,001,2025-08-19_16h26.13.057,tilt_mocs,2024.2.4,None,2025-08-19 16h27.16.922702 -0400,
1.1666666666666663,15.0,m2,poss,100,13,13,0,left,1.0521711248438805,None,,,,,,,,,0,13,13,3,25.697699334006757,,,,,,,,,,,,,,,,,,,,,,,,,,,,,,25.689636709168553,25.697699334006757,26.188230000203475,26.188230000203475,26.26443179207854,26.26443179207854,26.26443179207854,26.75462175020948,left,1.0521711248438805,None,,,,,,,,brian,001,2025-08-19_16h26.13.057,tilt_mocs,2024.2.4,None,2025-08-19 16h27.16.922702 -0400,
-4.25,-15.0,m1,negs,100,14,14,0,left,1.6130898748524487,None,,,,,,,,,0,14,14,80,26.764373334124684,,,,,,,,,,,,,,,,,,,,,,,,,,,,,,26.75579508417286,26.764373334124684,27.248849500203505,27.248849500203505,27.332187124993652,27.320633334107697,27.320633334107697,28.383582334034145,left,1.6130898748524487,None,,,,,,,,brian,001,2025-08-19_16h26.13.057,tilt_mocs,2024.2.4,None,2025-08-19 16h27.16.922702 -0400,
2.1666666666666665,15.0,m1,poss,100,15,15,0,right,1.2115672500804067,None,,,,,,,,,0,15,15,16,28.391567917075008,,,,,,,,,,,,,,,,,,,,,,,,,,,,,,28.384607209125534,28.391567917075008,28.881973625160754,28.881973625160754,28.95450183399953,28.95450183399953,28.95450183399953,29.60657933400944,right,1.2115672500804067,None,,,,,,,,brian,001,2025-08-19_16h26.13.057,tilt_mocs,2024.2.4,None,2025-08-19 16h27.16.922702 -0400,
-0.4444444444444443,0.0,p1,noss,0,16,16,0,left,1.2076294580474496,None,,,,,,,,,0,16,16,141,29.614542125025764,,,,,,,,,,,,,,,,,,,,,,,,,,,,,,29.607669334160164,29.614542125025764,30.107042167102918,30.107042167102918,30.18209108407609,30.18209108407609,30.18209108407609,30.833870084024966,left,1.2076294580474496,None,,,,,,,,brian,001,2025-08-19_16h26.13.057,tilt_mocs,2024.2.4,None,2025-08-19 16h27.16.922702 -0400,
-3.75,-15.0,PSE,negs,100,17,17,0,right,1.0263087498024106,None,,,,,,,,,0,17,17,86,30.84146633418277,,,,,,,,,,,,,,,,,,,,,,,,,,,,,,30.83481016708538,30.84146633418277,31.33208866720088,31.33208866720088,31.405248750001192,31.405248750001192,31.405248750001192,31.8724695420824,right,1.0263087498024106,None,,,,,,,,brian,001,2025-08-19_16h26.13.057,tilt_mocs,2024.2.4,None,2025-08-19 16h27.16.922702 -0400,
-0.9444444444444444,0.0,PSE,noss,0,18,18,0,left,1.0362124578095973,None,,,,,,,,,0,18,18,132,31.88102583400905,,,,,,,,,,,,,,,,,,,,,,,,,,,,,,31.87342220917344,31.88102583400905,32.374183000065386,32.374183000065386,32.44898004201241,32.44898004201241,32.44898004201241,32.92314154212363,left,1.0362124578095973,None,,,,,,,,brian,001,2025-08-19_16h26.13.057,tilt_mocs,2024.2.4,None,2025-08-19 16h27.16.922702 -0400,
2.1666666666666665,15.0,m1,poss,100,19,19,0,left,1.0657561670523137,None,,,,,,,,,0,19,19,20,32.93116916716099,,,,,,,,,,,,,,,,,,,,,,,,,,,,,,32.924361375160515,32.93116916716099,33.42274683411233,33.42274683411233,33.498855917016044,33.498855917016044,33.498855917016044,33.99940362502821,left,1.0657561670523137,None,,,,,,,,brian,001,2025-08-19_16h26.13.057,tilt_mocs,2024.2.4,None,2025-08-19 16h27.16.922702 -0400,
3.1666666666666665,15.0,p1,poss,100,20,20,0,right,1.1389315000269562,None,,,,,,,,,0,20,20,43,34.00246304203756,,,,,,,,,,,,,,,,,,,,,,,,,,,,,,33.99979225010611,34.00246304203756,34.49071037513204,34.49071037513204,34.57162525015883,34.56539683416486,34.56539683416486,35.150494042085484,right,1.1389315000269562,None,,,,,,,,brian,001,2025-08-19_16h26.13.057,tilt_mocs,2024.2.4,None,2025-08-19 16h27.16.922702 -0400,
-2.25,-15.0,p2,negs,100,21,21,0,right,2.2381816250272095,None,,,,,,,,,0,21,21,116,35.15769891720265,,,,,,,,,,,,,,,,,,,,,,,,,,,,,,35.151909792097285,35.15769891720265,35.64794066711329,35.64794066711329,35.71982958400622,35.71982958400622,35.71982958400622,37.40113745909184,right,2.2381816250272095,None,,,,,,,,brian,001,2025-08-19_16h26.13.057,tilt_mocs,2024.2.4,None,2025-08-19 16h27.16.922702 -0400,
-3.75,-15.0,PSE,negs,100,22,22,0,left,1.1142225419171154,None,,,,,,,,,0,22,22,93,37.40988704212941,,,,,,,,,,,,,,,,,,,,,,,,,,,,,,37.40260895900428,37.40988704212941,37.89776008413173,37.89776008413173,37.96958845900372,37.96958845900372,37.96958845900372,38.53437062515877,left,1.1142225419171154,None,,,,,,,,brian,001,2025-08-19_16h26.13.057,tilt_mocs,2024.2.4,None,2025-08-19 16h27.16.922702 -0400,
2.6666666666666665,15.0,PSE,poss,100,23,23,0,left,1.059385374886915,None,,,,,,,,,0,23,23,32,38.54221004201099,,,,,,,,,,,,,,,,,,,,,,,,,,,,,,38.53553350013681,38.54221004201099,39.0323266251944,39.0323266251944,39.1045530422125,39.1045530422125,39.1045530422125,39.6041046672035,left,1.059385374886915,None,,,,,,,,brian,001,2025-08-19_16h26.13.057,tilt_mocs,2024.2.4,None,2025-08-19 16h27.16.922702 -0400,
-0.5555555555555557,0.0,p2,noss,0,24,24,0,left,1.0283482500817627,None,,,,,,,,,0,24,24,144,39.6150539170485,,,,,,,,,,,,,,,,,,,,,,,,,,,,,,39.605040750000626,39.6150539170485,40.098090042127296,40.098090042127296,40.182156334165484,40.16991845914163,40.16991845914163,40.65113295917399,left,1.0283482500817627,None,,,,,,,,brian,001,2025-08-19_16h26.13.057,tilt_mocs,2024.2.4,None,2025-08-19 16h27.16.922702 -0400,
-4.25,-15.0,m1,negs,100,25,25,0,left,1.1090306248515844,None,,,,,,,,,0,25,25,73,40.65891654207371,,,,,,,,,,,,,,,,,,,,,,,,,,,,,,40.652301917085424,40.65891654207371,41.14880108414218,41.14880108414218,41.21945583401248,41.21945583401248,41.21945583401248,41.77112845913507,left,1.1090306248515844,None,,,,,,,,brian,001,2025-08-19_16h26.13.057,tilt_mocs,2024.2.4,None,2025-08-19 16h27.16.922702 -0400,
4.166666666666666,15.0,p2,poss,100,26,26,0,right,1.0361645419616252,None,,,,,,,,,0,26,26,58,41.781174917006865,,,,,,,,,,,,,,,,,,,,,,,,,,,,,,41.77150625013746,41.781174917006865,42.265572750009596,42.265572750009596,42.348724542185664,42.335784167051315,42.335784167051315,42.82186495908536,right,1.0361645419616252,None,,,,,,,,brian,001,2025-08-19_16h26.13.057,tilt_mocs,2024.2.4,None,2025-08-19 16h27.16.922702 -0400,
-3.75,-15.0,PSE,negs,100,27,27,0,left,1.1197980421129614,None,,,,,,,,,0,27,27,87,42.83092191698961,,,,,,,,,,,,,,,,,,,,,,,,,,,,,,42.82298366702162,42.83092191698961,43.3237526670564,43.3237526670564,43.398688584100455,43.398688584100455,43.398688584100455,43.956181625137106,left,1.1197980421129614,None,,,,,,,,brian,001,2025-08-19_16h26.13.057,tilt_mocs,2024.2.4,None,2025-08-19 16h27.16.922702 -0400,
-3.25,-15.0,p1,negs,100,28,28,0,left,1.0914401670452207,None,,,,,,,,,0,28,28,100,43.96421250002459,,,,,,,,,,,,,,,,,,,,,,,,,,,,,,43.95741762500256,43.96421250002459,44.45792404212989,44.45792404212989,44.53212833404541,44.53212833404541,44.53212833404541,45.06696870899759,left,1.0914401670452207,None,,,,,,,,brian,001,2025-08-19_16h26.13.057,tilt_mocs,2024.2.4,None,2025-08-19 16h27.16.922702 -0400,
4.166666666666666,15.0,p2,poss,100,29,29,0,right,1.125781875103712,None,,,,,,,,,0,29,29,55,45.07461458421312,,,,,,,,,,,,,,,,,,,,,,,,,,,,,,45.06792295910418,45.07461458421312,45.565398584119976,45.565398584119976,45.63813495915383,45.63813495915383,45.63813495915383,46.20640541706234,right,1.125781875103712,None,,,,,,,,brian,001,2025-08-19_16h26.13.057,tilt_mocs,2024.2.4,None,2025-08-19 16h27.16.922702 -0400,
-3.25,-15.0,p1,negs,100,30,30,0,left,1.3418886249419302,None,,,,,,,,,0,30,30,96,46.214549500029534,,,,,,,,,,,,,,,,,,,,,,,,,,,,,,46.207637125160545,46.214549500029534,46.707639375003055,46.707639375003055,46.78196229203604,46.78196229203604,46.78196229203604,47.56781095918268,left,1.3418886249419302,None,,,,,,,,brian,001,2025-08-19_16h26.13.057,tilt_mocs,2024.2.4,None,2025-08-19 16h27.16.922702 -0400,
-5.25,-15.0,m2,negs,100,31,31,0,left,1.0525161251425743,None,,,,,,,,,0,31,31,68,47.57445591711439,,,,,,,,,,,,,,,,,,,,,,,,,,,,,,47.56863250001334,47.57445591711439,48.064964374993,48.064964374993,48.13779833400622,48.13779833400622,48.13779833400622,48.634357209084556,left,1.0525161251425743,None,,,,,,,,brian,001,2025-08-19_16h26.13.057,tilt_mocs,2024.2.4,None,2025-08-19 16h27.16.922702 -0400,
-1.4444444444444442,0.0,m1,noss,0,32,32,0,right,1.1407855830620974,None,,,,,,,,,0,32,32,127,48.64292737515643,,,,,,,,,,,,,,,,,,,,,,,,,,,,,,48.63580566714518,48.64292737515643,49.13215154199861,49.13215154199861,49.20477033406496,49.20477033406496,49.20477033406496,49.78861983399838,right,1.1407855830620974,None,,,,,,,,brian,001,2025-08-19_16h26.13.057,tilt_mocs,2024.2.4,None,2025-08-19 16h27.16.922702 -0400,
3.1666666666666665,15.0,p1,poss,100,33,33,0,right,1.1371149579063058,None,,,,,,,,,0,33,33,41,49.79794670920819,,,,,,,,,,,,,,,,,,,,,,,,,,,,,,49.78929550014436,49.79794670920819,50.289663709001616,50.289663709001616,50.36528258398175,50.36528258398175,50.36528258398175,50.9393232089933,right,1.1371149579063058,None,,,,,,,,brian,001,2025-08-19_16h26.13.057,tilt_mocs,2024.2.4,None,2025-08-19 16h27.16.922702 -0400,
-4.25,-15.0,m1,negs,100,34,34,0,right,1.6079583331011236,None,,,,,,,,,0,34,34,82,50.94769170903601,,,,,,,,,,,,,,,,,,,,,,,,,,,,,,50.94029570906423,50.94769170903601,51.439492584206164,51.439492584206164,51.51536941714585,51.51536941714585,51.51536941714585,52.5646588341333,right,1.6079583331011236,None,,,,,,,,brian,001,2025-08-19_16h26.13.057,tilt_mocs,2024.2.4,None,2025-08-19 16h27.16.922702 -0400,
-1.4444444444444442,0.0,m1,noss,0,35,35,0,left,0.9860617499798536,None,,,,,,,,,0,35,35,131,52.56858929200098,,,,,,,,,,,,,,,,,,,,,,,,,,,,,,52.56506175012328,52.56858929200098,53.05596466711722,53.05596466711722,53.137555042048916,53.1322482500691,53.1322482500691,53.55725150019862,left,0.9860617499798536,None,,,,,,,,brian,001,2025-08-19_16h26.13.057,tilt_mocs,2024.2.4,None,2025-08-19 16h27.16.922702 -0400,
-0.9444444444444444,0.0,PSE,noss,0,36,36,0,left,1.0216837080661207,None,,,,,,,,,0,36,36,136,53.5656831250526,,,,,,,,,,,,,,,,,,,,,,,,,,,,,,53.558525250060484,53.5656831250526,54.05727674998343,54.05727674998343,54.13199825002812,54.13199825002812,54.13199825002812,54.60008337511681,left,1.0216837080661207,None,,,,,,,,brian,001,2025-08-19_16h26.13.057,tilt_mocs,2024.2.4,None,2025-08-19 16h27.16.922702 -0400,
-0.4444444444444443,0.0,p1,noss,0,37,37,0,right,1.2776028749067336,None,,,,,,,,,0,37,37,140,54.60752062499523,,,,,,,,,,,,,,,,,,,,,,,,,,,,,,54.60101200011559,54.60752062499523,55.09867816721089,55.09867816721089,55.17153766704723,55.17153766704723,55.17153766704723,55.88784075016156,right,1.2776028749067336,None,,,,,,,,brian,001,2025-08-19_16h26.13.057,tilt_mocs,2024.2.4,None,2025-08-19 16h27.16.922702 -0400,
3.1666666666666665,15.0,p1,poss,100,38,38,0,right,1.0227653339970857,None,,,,,,,,,0,38,38,38,55.89790662517771,,,,,,,,,,,,,,,,,,,,,,,,,,,,,,55.88888670899905,55.89790662517771,56.38154604216106,56.38154604216106,56.4653629171662,56.45356195908971,56.45356195908971,56.93325037509203,right,1.0227653339970857,None,,,,,,,,brian,001,2025-08-19_16h26.13.057,tilt_mocs,2024.2.4,None,2025-08-19 16h27.16.922702 -0400,
-5.25,-15.0,m2,negs,100,39,39,0,left,0.9448960409499705,None,,,,,,,,,0,39,39,63,56.94083912507631,,,,,,,,,,,,,,,,,,,,,,,,,,,,,,56.93419108400121,56.94083912507631,57.43197383405641,57.43197383405641,57.50449241721071,57.50449241721071,57.50449241721071,57.889221334131435,left,0.9448960409499705,None,,,,,,,,brian,001,2025-08-19_16h26.13.057,tilt_mocs,2024.2.4,None,2025-08-19 16h27.16.922702 -0400,
-5.25,-15.0,m2,negs,100,40,40,0,left,1.0058033750392497,None,,,,,,,,,0,40,40,71,57.897608334198594,,,,,,,,,,,,,,,,,,,,,,,,,,,,,,57.89017879217863,57.897608334198594,58.389771750196815,58.389771750196815,58.465328209102154,58.465328209102154,58.465328209102154,58.906235333997756,left,1.0058033750392497,None,,,,,,,,brian,001,2025-08-19_16h26.13.057,tilt_mocs,2024.2.4,None,2025-08-19 16h27.16.922702 -0400,
-0.5555555555555557,0.0,p2,noss,0,41,41,0,left,1.006272790953517,None,,,,,,,,,0,41,41,146,58.914227625122294,,,,,,,,,,,,,,,,,,,,,,,,,,,,,,58.90715366718359,58.914227625122294,59.407139625167474,59.407139625167474,59.4820656250231,59.4820656250231,59.4820656250231,59.93293654220179,left,1.006272790953517,None,,,,,,,,brian,001,2025-08-19_16h26.13.057,tilt_mocs,2024.2.4,None,2025-08-19 16h27.16.922702 -0400,
-0.5555555555555557,0.0,p2,noss,0,42,42,0,left,0.9267058749683201,None,,,,,,,,,0,42,42,149,59.94060125015676,,,,,,,,,,,,,,,,,,,,,,,,,,,,,,59.93390133418143,59.94060125015676,60.42451020912267,60.42451020912267,60.50260612508282,60.50260612508282,60.50260612508282,60.876333334017545,left,0.9267058749683201,None,,,,,,,,brian,001,2025-08-19_16h26.13.057,tilt_mocs,2024.2.4,None,2025-08-19 16h27.16.922702 -0400,
1.1666666666666663,15.0,m2,poss,100,43,43,0,left,0.9857226249296218,None,,,,,,,,,0,43,43,8,60.881834250176325,,,,,,,,,,,,,,,,,,,,,,,,,,,,,,60.87730554211885,60.881834250176325,61.37361283414066,61.37361283414066,61.4548539170064,61.44877375010401,61.44877375010401,61.87272054213099,left,0.9857226249296218,None,,,,,,,,brian,001,2025-08-19_16h26.13.057,tilt_mocs,2024.2.4,None,2025-08-19 16h27.16.922702 -0400,
-5.25,-15.0,m2,negs,100,44,44,0,left,0.9859930831007659,None,,,,,,,,,0,44,44,64,61.88095125020482,,,,,,,,,,,,,,,,,,,,,,,,,,,,,,61.87386212521233,61.88095125020482,62.37400000006892,62.37400000006892,62.44881350011565,62.44881350011565,62.44881350011565,62.87206191709265,left,0.9859930831007659,None,,,,,,,,brian,001,2025-08-19_16h26.13.057,tilt_mocs,2024.2.4,None,2025-08-19 16h27.16.922702 -0400,
-3.25,-15.0,p1,negs,100,45,45,0,left,1.05278137489222,None,,,,,,,,,0,45,45,104,62.880956375040114,,,,,,,,,,,,,,,,,,,,,,,,,,,,,,62.87316133407876,62.880956375040114,63.36501920898445,63.36501920898445,63.44879637518898,63.43679504212923,63.43679504212923,63.939636417198926,left,1.05278137489222,None,,,,,,,,brian,001,2025-08-19_16h26.13.057,tilt_mocs,2024.2.4,None,2025-08-19 16h27.16.922702 -0400,
-2.25,-15.0,p2,negs,100,46,46,0,right,1.0858735828660429,None,,,,,,,,,0,46,46,108,63.94793983409181,,,,,,,,,,,,,,,,,,,,,,,,,,,,,,63.940964500186965,63.94793983409181,64.43826833413914,64.43826833413914,64.51536204200238,64.51536204200238,64.51536204200238,65.03893391718157,right,1.0858735828660429,None,,,,,,,,brian,001,2025-08-19_16h26.13.057,tilt_mocs,2024.2.4,None,2025-08-19 16h27.16.922702 -0400,
-5.25,-15.0,m2,negs,100,47,47,0,left,0.9974340409971774,None,,,,,,,,,0,47,47,65,65.0476118340157,,,,,,,,,,,,,,,,,,,,,,,,,,,,,,65.04027491714805,65.0476118340157,65.53930937498808,65.53930937498808,65.61537137511186,65.61537137511186,65.61537137511186,66.05044250003994,left,0.9974340409971774,None,,,,,,,,brian,001,2025-08-19_16h26.13.057,tilt_mocs,2024.2.4,None,2025-08-19 16h27.16.922702 -0400,
-0.5555555555555557,0.0,p2,noss,0,48,48,0,left,0.9815224159974605,None,,,,,,,,,0,48,48,148,66.05791925010271,,,,,,,,,,,,,,,,,,,,,,,,,,,,,,66.05137866712175,66.05791925010271,66.54816129198298,66.54816129198298,66.62031162506901,66.62031162506901,66.62031162506901,67.04893962503411,left,0.9815224159974605,None,,,,,,,,brian,001,2025-08-19_16h26.13.057,tilt_mocs,2024.2.4,None,2025-08-19 16h27.16.922702 -0400,
2.1666666666666665,15.0,m1,poss,100,49,49,0,left,1.065345915965736,None,,,,,,,,,0,49,49,22,67.05343779199757,,,,,,,,,,,,,,,,,,,,,,,,,,,,,,67.04937762510963,67.05343779199757,67.54021920915693,67.54021920915693,67.62177054211497,67.61537741706707,67.61537741706707,68.1209234171547,left,1.065345915965736,None,,,,,,,,brian,001,2025-08-19_16h26.13.057,tilt_mocs,2024.2.4,None,2025-08-19 16h27.16.922702 -0400,
2.6666666666666665,15.0,PSE,poss,100,50,50,0,right,1.0699908339884132,None,,,,,,,,,0,50,50,29,68.13108166703023,,,,,,,,,,,,,,,,,,,,,,,,,,,,,,68.12195120914839,68.13108166703023,68.61476283404045,68.61476283404045,68.6987589171622,68.68639158410951,68.68639158410951,69.20624195900746,right,1.0699908339884132,None,,,,,,,,brian,001,2025-08-19_16h26.13.057,tilt_mocs,2024.2.4,None,2025-08-19 16h27.16.922702 -0400,
-0.9444444444444444,0.0,PSE,noss,0,51,51,0,left,0.9658741659950465,None,,,,,,,,,0,51,51,137,69.21394850010984,,,,,,,,,,,,,,,,,,,,,,,,,,,,,,69.20715925004333,69.21394850010984,69.7070520000998,69.7070520000998,69.78220195905305,69.78220195905305,69.78220195905305,70.18421733402647,left,0.9658741659950465,None,,,,,,,,brian,001,2025-08-19_16h26.13.057,tilt_mocs,2024.2.4,None,2025-08-19 16h27.16.922702 -0400,
2.1666666666666665,15.0,m1,poss,100,52,52,0,right,1.109431916847825,None,,,,,,,,,0,52,52,18,70.19176308414899,,,,,,,,,,,,,,,,,,,,,,,,,,,,,,70.18520283419639,70.19176308414899,70.68189916713163,70.68189916713163,70.75361858401448,70.75361858401448,70.75361858401448,71.30655358405784,right,1.109431916847825,None,,,,,,,,brian,001,2025-08-19_16h26.13.057,tilt_mocs,2024.2.4,None,2025-08-19 16h27.16.922702 -0400,
3.1666666666666665,15.0,p1,poss,100,53,53,0,right,1.019891875097528,None,,,,,,,,,0,53,53,40,71.31454241718166,,,,,,,,,,,,,,,,,,,,,,,,,,,,,,71.30774095910601,71.31454241718166,71.80798179213889,71.80798179213889,71.88199195917696,71.88627754198387,71.88627754198387,72.33926174999215,right,1.019891875097528,None,,,,,,,,brian,001,2025-08-19_16h26.13.057,tilt_mocs,2024.2.4,None,2025-08-19 16h27.16.922702 -0400,
-3.25,-15.0,p1,negs,100,54,54,0,left,1.6544248750433326,None,,,,,,,,,0,54,54,101,72.34758141706698,,,,,,,,,,,,,,,,,,,,,,,,,,,,,,72.34019179199822,72.34758141706698,72.840623666998,72.840623666998,72.91530595906079,72.91530595906079,72.91530595906079,74.00618500006385,left,1.6544248750433326,None,,,,,,,,brian,001,2025-08-19_16h26.13.057,tilt_mocs,2024.2.4,None,2025-08-19 16h27.16.922702 -0400,
-5.25,-15.0,m2,negs,100,55,55,0,left,0.9714210410602391,None,,,,,,,,,0,55,55,69,74.0141177920159,,,,,,,,,,,,,,,,,,,,,,,,,,,,,,74.00734325009398,74.0141177920159,74.50610266719013,74.50610266719013,74.58214304200374,74.58214304200374,74.58214304200374,74.98864962509833,left,0.9714210410602391,None,,,,,,,,brian,001,2025-08-19_16h26.13.057,tilt_mocs,2024.2.4,None,2025-08-19 16h27.16.922702 -0400,
3.1666666666666665,15.0,p1,poss,100,56,56,0,right,1.196730999974534,None,,,,,,,,,0,56,56,46,74.99754437501542,,,,,,,,,,,,,,,,,,,,,,,,,,,,,,74.9897377921734,74.99754437501542,75.49078637501225,75.49078637501225,75.56544637517072,75.56544637517072,75.56544637517072,76.20024162507616,right,1.196730999974534,None,,,,,,,,brian,001,2025-08-19_16h26.13.057,tilt_mocs,2024.2.4,None,2025-08-19 16h27.16.922702 -0400,
2.1666666666666665,15.0,m1,poss,100,57,57,0,right,1.0953942080959678,None,,,,,,,,,0,57,57,14,76.20805737515911,,,,,,,,,,,,,,,,,,,,,,,,,,,,,,76.20139504200779,76.20805737515911,76.69780083419755,76.69780083419755,76.7694383750204,76.7694383750204,76.7694383750204,77.30544416699558,right,1.0953942080959678,None,,,,,,,,brian,001,2025-08-19_16h26.13.057,tilt_mocs,2024.2.4,None,2025-08-19 16h27.16.922702 -0400,
-3.75,-15.0,PSE,negs,100,58,58,0,left,1.313255500048399,None,,,,,,,,,0,58,58,85,77.31419295910746,,,,,,,,,,,,,,,,,,,,,,,,,,,,,,77.30641670920886,77.31419295910746,77.80411700019613,77.80411700019613,77.88134708418511,77.88134708418511,77.88134708418511,78.63372362498194,left,1.313255500048399,None,,,,,,,,brian,001,2025-08-19_16h26.13.057,tilt_mocs,2024.2.4,None,2025-08-19 16h27.16.922702 -0400,
3.1666666666666665,15.0,p1,poss,100,59,59,0,right,1.0922838340047747,None,,,,,,,,,0,59,59,36,78.64177695917897,,,,,,,,,,,,,,,,,,,,,,,,,,,,,,78.63473012507893,78.64177695917897,79.13130208407529,79.13130208407529,79.20429308409803,79.20429308409803,79.20429308409803,79.73974716709927,right,1.0922838340047747,None,,,,,,,,brian,001,2025-08-19_16h26.13.057,tilt_mocs,2024.2.4,None,2025-08-19 16h27.16.922702 -0400,
2.6666666666666665,15.0,PSE,poss,100,60,60,0,right,1.3365278339479119,None,,,,,,,,,0,60,60,24,79.74803104205057,,,,,,,,,,,,,,,,,,,,,,,,,,,,,,79.74098950019106,79.74803104205057,80.2398230000399,80.2398230000399,80.3152356671635,80.3152356671635,80.3152356671635,81.08970154216513,right,1.3365278339479119,None,,,,,,,,brian,001,2025-08-19_16h26.13.057,tilt_mocs,2024.2.4,None,2025-08-19 16h27.16.922702 -0400,
-3.25,-15.0,p1,negs,100,61,61,0,left,1.086565042147413,None,,,,,,,,,0,61,61,103,81.09765200014226,,,,,,,,,,,,,,,,,,,,,,,,,,,,,,81.09070179215632,81.09765200014226,81.58972066710703,81.58972066710703,81.66529862512834,81.66529862512834,81.66529862512834,82.18913083407097,left,1.086565042147413,None,,,,,,,,brian,001,2025-08-19_16h26.13.057,tilt_mocs,2024.2.4,None,2025-08-19 16h27.16.922702 -0400,
-4.25,-15.0,m1,negs,100,62,62,0,left,1.008665082976222,None,,,,,,,,,0,62,62,76,82.19770362507552,,,,,,,,,,,,,,,,,,,,,,,,,,,,,,82.1901563340798,82.19770362507552,82.68989912513644,82.68989912513644,82.76532862498425,82.76532862498425,82.76532862498425,83.21680879220366,left,1.008665082976222,None,,,,,,,,brian,001,2025-08-19_16h26.13.057,tilt_mocs,2024.2.4,None,2025-08-19 16h27.16.922702 -0400,
-0.9444444444444444,0.0,PSE,noss,0,63,63,0,left,1.083888916997239,None,,,,,,,,,0,63,63,135,83.2247316672001,,,,,,,,,,,,,,,,,,,,,,,,,,,,,,83.21777466707863,83.2247316672001,83.71532425004989,83.71532425004989,83.78821404208429,83.78821404208429,83.78821404208429,84.31746508413926,left,1.083888916997239,None,,,,,,,,brian,001,2025-08-19_16h26.13.057,tilt_mocs,2024.2.4,None,2025-08-19 16h27.16.922702 -0400,
4.166666666666666,15.0,p2,poss,100,64,64,0,right,1.0718597921077162,None,,,,,,,,,0,64,64,53,84.32525225006975,,,,,,,,,,,,,,,,,,,,,,,,,,,,,,84.31847158400342,84.32525225006975,84.81541983410716,84.81541983410716,84.8886805002112,84.8886805002112,84.8886805002112,85.4008690000046,right,1.0718597921077162,None,,,,,,,,brian,001,2025-08-19_16h26.13.057,tilt_mocs,2024.2.4,None,2025-08-19 16h27.16.922702 -0400,
-3.75,-15.0,PSE,negs,100,65,65,0,right,1.2333461658563465,None,,,,,,,,,0,65,65,94,85.40726583404467,,,,,,,,,,,,,,,,,,,,,,,,,,,,,,85.40193704213016,85.40726583404467,85.89856766699813,85.89856766699813,85.9707821670454,85.9707821670454,85.9707821670454,86.6502019171603,right,1.2333461658563465,None,,,,,,,,brian,001,2025-08-19_16h26.13.057,tilt_mocs,2024.2.4,None,2025-08-19 16h27.16.922702 -0400,
-2.444444444444444,0.0,m2,noss,0,66,66,0,left,0.9421437920536846,None,,,,,,,,,0,66,66,125,86.65811179205775,,,,,,,,,,,,,,,,,,,,,,,,,,,,,,86.65113808400929,86.65811179205775,87.14850337500684,87.14850337500684,87.2215202501975,87.2215202501975,87.2215202501975,87.60836095898412,left,0.9421437920536846,None,,,,,,,,brian,001,2025-08-19_16h26.13.057,tilt_mocs,2024.2.4,None,2025-08-19 16h27.16.922702 -0400,
4.166666666666666,15.0,p2,poss,100,67,67,0,right,1.0103016658686101,None,,,,,,,,,0,67,67,49,87.61425441713072,,,,,,,,,,,,,,,,,,,,,,,,,,,,,,87.60933200013824,87.61425441713072,88.10599483409896,88.10599483409896,88.18204458407126,88.18204458407126,88.18204458407126,88.63404600019567,right,1.0103016658686101,None,,,,,,,,brian,001,2025-08-19_16h26.13.057,tilt_mocs,2024.2.4,None,2025-08-19 16h27.16.922702 -0400,
-2.25,-15.0,p2,negs,100,68,68,0,right,1.0544274591375142,None,,,,,,,,,0,68,68,111,88.6417238751892,,,,,,,,,,,,,,,,,,,,,,,,,,,,,,88.63499854202382,88.6417238751892,89.13196537503973,89.13196537503973,89.20479837502353,89.20479837502353,89.20479837502353,89.70030545908958,right,1.0544274591375142,None,,,,,,,,brian,001,2025-08-19_16h26.13.057,tilt_mocs,2024.2.4,None,2025-08-19 16h27.16.922702 -0400,
4.166666666666666,15.0,p2,poss,100,69,69,0,right,1.005070042097941,None,,,,,,,,,0,69,69,54,89.70824308414012,,,,,,,,,,,,,,,,,,,,,,,,,,,,,,89.701264917152,89.70824308414012,90.19792391709052,90.19792391709052,90.2711268751882,90.2711268751882,90.2711268751882,90.71769341710024,right,1.005070042097941,None,,,,,,,,brian,001,2025-08-19_16h26.13.057,tilt_mocs,2024.2.4,None,2025-08-19 16h27.16.922702 -0400,
-2.444444444444444,0.0,m2,noss,0,70,70,0,left,0.9680050830356777,None,,,,,,,,,0,70,70,124,90.72565650008619,,,,,,,,,,,,,,,,,,,,,,,,,,,,,,90.71915287501179,90.72565650008619,91.21532875020057,91.21532875020057,91.28736008401029,91.28736008401029,91.28736008401029,91.70080166705884,left,0.9680050830356777,None,,,,,,,,brian,001,2025-08-19_16h26.13.057,tilt_mocs,2024.2.4,None,2025-08-19 16h27.16.922702 -0400,
-5.25,-15.0,m2,negs,100,71,71,0,left,0.926966292085126,None,,,,,,,,,0,71,71,61,91.70847058412619,,,,,,,,,,,,,,,,,,,,,,,,,,,,,,91.70179508416913,91.70847058412619,92.1975857920479,92.1975857920479,92.27151858410798,92.27151858410798,92.27151858410798,92.63786395918578,left,0.926966292085126,None,,,,,,,,brian,001,2025-08-19_16h26.13.057,tilt_mocs,2024.2.4,None,2025-08-19 16h27.16.922702 -0400,
-5.25,-15.0,m2,negs,100,72,72,0,left,1.030198625056073,None,,,,,,,,,0,72,72,67,92.64793633413501,,,,,,,,,,,,,,,,,,,,,,,,,,,,,,92.63883766718209,92.64793633413501,93.14041445916519,93.14041445916519,93.21533683408052,93.21533683408052,93.21533683408052,93.68385858414695,left,1.030198625056073,None,,,,,,,,brian,001,2025-08-19_16h26.13.057,tilt_mocs,2024.2.4,None,2025-08-19 16h27.16.922702 -0400,
-4.25,-15.0,m1,negs,100,73,73,0,left,1.047347665997222,None,,,,,,,,,0,73,73,81,93.69145904202014,,,,,,,,,,,,,,,,,,,,,,,,,,,,,,93.68477900000289,93.69145904202014,94.18201000010595,94.18201000010595,94.25358812510967,94.25358812510967,94.25358812510967,94.75089825014584,left,1.047347665997222,None,,,,,,,,brian,001,2025-08-19_16h26.13.057,tilt_mocs,2024.2.4,None,2025-08-19 16h27.16.922702 -0400,
-2.25,-15.0,p2,negs,100,74,74,0,right,1.0202699161600322,None,,,,,,,,,0,74,74,114,94.75831658416428,,,,,,,,,,,,,,,,,,,,,,,,,,,,,,94.75194616708905,94.75831658416428,95.24791045906022,95.24791045906022,95.3191595422104,95.3191595422104,95.3191595422104,95.78229166707024,right,1.0202699161600322,None,,,,,,,,brian,001,2025-08-19_16h26.13.057,tilt_mocs,2024.2.4,None,2025-08-19 16h27.16.922702 -0400,
2.6666666666666665,15.0,PSE,poss,100,75,75,0,right,1.0684860839974135,None,,,,,,,,,0,75,75,35,95.78697641706094,,,,,,,,,,,,,,,,,,,,,,,,,,,,,,95.78279195912182,95.78697641706094,96.2728877090849,96.2728877090849,96.35432916716672,96.34862762503326,96.34862762503326,96.86746887513436,right,1.0684860839974135,None,,,,,,,,brian,001,2025-08-19_16h26.13.057,tilt_mocs,2024.2.4,None,2025-08-19 16h27.16.922702 -0400,
-3.25,-15.0,p1,negs,100,76,76,0,left,1.3337099999189377,None,,,,,,,,,0,76,76,106,96.87583945901133,,,,,,,,,,,,,,,,,,,,,,,,,,,,,,96.86889195907861,96.87583945901133,97.36524045909755,97.36524045909755,97.43731241719797,97.43731241719797,97.43731241719797,98.21772962505929,left,1.3337099999189377,None,,,,,,,,brian,001,2025-08-19_16h26.13.057,tilt_mocs,2024.2.4,None,2025-08-19 16h27.16.922702 -0400,
-2.444444444444444,0.0,m2,noss,0,77,77,0,left,0.9626137919258326,None,,,,,,,,,0,77,77,120,98.22588200005703,,,,,,,,,,,,,,,,,,,,,,,,,,,,,,98.21899329219013,98.22588200005703,98.71542808413506,98.71542808413506,98.78820829209872,98.78820829209872,98.78820829209872,99.2008823340293,left,0.9626137919258326,None,,,,,,,,brian,001,2025-08-19_16h26.13.057,tilt_mocs,2024.2.4,None,2025-08-19 16h27.16.922702 -0400,
4.166666666666666,15.0,p2,poss,100,78,78,0,right,1.0409148330800235,None,,,,,,,,,0,78,78,51,99.20936558418907,,,,,,,,,,,,,,,,,,,,,,,,,,,,,,99.20231295912527,99.20936558418907,99.69873608415946,99.69873608415946,99.77038750005886,99.77038750005886,99.77038750005886,100.25952579220757,right,1.0409148330800235,None,,,,,,,,brian,001,2025-08-19_16h26.13.057,tilt_mocs,2024.2.4,None,2025-08-19 16h27.16.922702 -0400,
-1.4444444444444442,0.0,m1,noss,0,79,79,0,left,1.0152566249016672,None,,,,,,,,,0,79,79,130,100.26510537508875,,,,,,,,,,,,,,,,,,,,,,,,,,,,,,100.26052520913072,100.26510537508875,100.75628758408129,100.75628758408129,100.83708737511188,100.83183512510732,100.83183512510732,101.28389970911667,left,1.0152566249016672,None,,,,,,,,brian,001,2025-08-19_16h26.13.057,tilt_mocs,2024.2.4,None,2025-08-19 16h27.16.922702 -0400,
-4.25,-15.0,m1,negs,100,80,80,0,left,1.0275617081206292,None,,,,,,,,,0,80,80,79,101.29151345905848,,,,,,,,,,,,,,,,,,,,,,,,,,,,,,101.28485841699876,101.29151345905848,101.78120345901698,101.78120345901698,101.85474079218693,101.85474079218693,101.85474079218693,102.32233825000003,left,1.0275617081206292,None,,,,,,,,brian,001,2025-08-19_16h26.13.057,tilt_mocs,2024.2.4,None,2025-08-19 16h27.16.922702 -0400,
-4.25,-15.0,m1,negs,100,81,81,0,left,1.0036315831821412,None,,,,,,,,,0,81,81,78,102.33083575009368,,,,,,,,,,,,,,,,,,,,,,,,,,,,,,102.32328487513587,102.33083575009368,102.81428037513979,102.81428037513979,102.89854450011626,102.88728966703638,102.88728966703638,103.33941845898516,left,1.0036315831821412,None,,,,,,,,brian,001,2025-08-19_16h26.13.057,tilt_mocs,2024.2.4,None,2025-08-19 16h27.16.922702 -0400,
-1.4444444444444442,0.0,m1,noss,0,82,82,0,left,0.9709219171199948,None,,,,,,,,,0,82,82,128,103.34742641705088,,,,,,,,,,,,,,,,,,,,,,,,,,,,,,103.33977725007571,103.34742641705088,103.84026454202831,103.84026454202831,103.91523316712119,103.91523316712119,103.91523316712119,104.32341212499887,left,0.9709219171199948,None,,,,,,,,brian,001,2025-08-19_16h26.13.057,tilt_mocs,2024.2.4,None,2025-08-19 16h27.16.922702 -0400,
-3.75,-15.0,PSE,negs,100,83,83,0,left,1.2105689998716116,None,,,,,,,,,0,83,83,92,104.33134475001134,,,,,,,,,,,,,,,,,,,,,,,,,,,,,,104.3245566249825,104.33134475001134,104.82383091701195,104.82383091701195,104.89847412519157,104.89847412519157,104.89847412519157,105.55108200013638,left,1.2105689998716116,None,,,,,,,,brian,001,2025-08-19_16h26.13.057,tilt_mocs,2024.2.4,None,2025-08-19 16h27.16.922702 -0400,
2.6666666666666665,15.0,PSE,poss,100,84,84,0,right,1.0262294590938836,None,,,,,,,,,0,84,84,28,105.55957633419894,,,,,,,,,,,,,,,,,,,,,,,,,,,,,,105.55278450017795,105.55957633419894,106.0481463749893,106.0481463749893,106.11982687516138,106.11982687516138,106.11982687516138,106.58939441712573,right,1.0262294590938836,None,,,,,,,,brian,001,2025-08-19_16h26.13.057,tilt_mocs,2024.2.4,None,2025-08-19 16h27.16.922702 -0400,
-0.9444444444444444,0.0,PSE,noss,0,85,85,0,left,0.9697875841520727,None,,,,,,,,,0,85,85,134,106.59750679205172,,,,,,,,,,,,,,,,,,,,,,,,,,,,,,106.59040133398958,106.59750679205172,107.09048708411865,107.09048708411865,107.16546883410774,107.16546883410774,107.16546883410774,107.57233900018036,left,0.9697875841520727,None,,,,,,,,brian,001,2025-08-19_16h26.13.057,tilt_mocs,2024.2.4,None,2025-08-19 16h27.16.922702 -0400,
4.166666666666666,15.0,p2,poss,100,86,86,0,right,0.9937572497874498,None,,,,,,,,,0,86,86,48,107.58076783409342,,,,,,,,,,,,,,,,,,,,,,,,,,,,,,107.57328741718084,107.58076783409342,108.06408183416352,108.06408183416352,108.14871525019407,108.13667783420533,108.13667783420533,108.58428745903075,right,0.9937572497874498,None,,,,,,,,brian,001,2025-08-19_16h26.13.057,tilt_mocs,2024.2.4,None,2025-08-19 16h27.16.922702 -0400,
4.166666666666666,15.0,p2,poss,100,87,87,0,right,1.03264637500979,None,,,,,,,,,0,87,87,59,108.59149095905013,,,,,,,,,,,,,,,,,,,,,,,,,,,,,,108.58504045917653,108.59149095905013,109.08195862499997,109.08195862499997,109.15435029217042,109.15435029217042,109.15435029217042,109.63441662513651,right,1.03264637500979,None,,,,,,,,brian,001,2025-08-19_16h26.13.057,tilt_mocs,2024.2.4,None,2025-08-19 16h27.16.922702 -0400,
-0.4444444444444443,0.0,p1,noss,0,88,88,0,left,1.0484072919934988,None,,,,,,,,,0,88,88,142,109.64258570899256,,,,,,,,,,,,,,,,,,,,,,,,,,,,,,109.63569900020957,109.64258570899256,110.13184454198927,110.13184454198927,110.20204320899211,110.20204320899211,110.20204320899211,110.70115041709505,left,1.0484072919934988,None,,,,,,,,brian,001,2025-08-19_16h26.13.057,tilt_mocs,2024.2.4,None,2025-08-19 16h27.16.922702 -0400,
-5.25,-15.0,m2,negs,100,89,89,0,left,0.9501233340706676,None,,,,,,,,,0,89,89,62,110.70895550004207,,,,,,,,,,,,,,,,,,,,,,,,,,,,,,110.70212379214354,110.70895550004207,111.1975635420531,111.1975635420531,111.27121087512933,111.27121087512933,111.27121087512933,111.66757041704841,left,0.9501233340706676,None,,,,,,,,brian,001,2025-08-19_16h26.13.057,tilt_mocs,2024.2.4,None,2025-08-19 16h27.16.922702 -0400,
3.1666666666666665,15.0,p1,poss,100,90,90,0,right,1.0855467091314495,None,,,,,,,,,0,90,90,45,111.67530654207803,,,,,,,,,,,,,,,,,,,,,,,,,,,,,,111.66850891709328,111.67530654207803,112.1645845840685,112.1645845840685,112.23583670915104,112.23583670915104,112.23583670915104,112.76674170908518,right,1.0855467091314495,None,,,,,,,,brian,001,2025-08-19_16h26.13.057,tilt_mocs,2024.2.4,None,2025-08-19 16h27.16.922702 -0400,
-1.4444444444444442,0.0,m1,noss,0,91,91,0,left,0.9427189999260008,None,,,,,,,,,0,91,91,126,112.77461483399384,,,,,,,,,,,,,,,,,,,,,,,,,,,,,,112.76770062511787,112.77461483399384,113.2641702501569,113.2641702501569,113.33859487506561,113.33859487506561,113.33859487506561,113.72262375010177,left,0.9427189999260008,None,,,,,,,,brian,001,2025-08-19_16h26.13.057,tilt_mocs,2024.2.4,None,2025-08-19 16h27.16.922702 -0400,
2.1666666666666665,15.0,m1,poss,100,92,92,0,left,1.0082052499055862,None,,,,,,,,,0,92,92,17,113.7307905422058,,,,,,,,,,,,,,,,,,,,,,,,,,,,,,113.72357729217038,113.7307905422058,114.22478608414531,114.22478608414531,114.29857012513094,114.29857012513094,114.29857012513094,114.74104116717353,left,1.0082052499055862,None,,,,,,,,brian,001,2025-08-19_16h26.13.057,tilt_mocs,2024.2.4,None,2025-08-19 16h27.16.922702 -0400,
2.6666666666666665,15.0,PSE,poss,100,93,93,0,right,1.1533567919395864,None,,,,,,,,,0,93,93,34,114.74744354211725,,,,,,,,,,,,,,,,,,,,,,,,,,,,,,114.74152950011194,114.74744354211725,115.24048962513916,115.24048962513916,115.31570004206151,115.31570004206151,115.31570004206151,115.90644066710956,right,1.1533567919395864,None,,,,,,,,brian,001,2025-08-19_16h26.13.057,tilt_mocs,2024.2.4,None,2025-08-19 16h27.16.922702 -0400,
2.1666666666666665,15.0,m1,poss,100,94,94,0,left,1.0025980840437114,None,,,,,,,,,0,94,94,12,115.91434945911169,,,,,,,,,,,,,,,,,,,,,,,,,,,,,,115.90727075003088,115.91434945911169,116.40666395914741,116.40666395914741,116.48203191719949,116.48203191719949,116.48203191719949,116.92393325013109,left,1.0025980840437114,None,,,,,,,,brian,001,2025-08-19_16h26.13.057,tilt_mocs,2024.2.4,None,2025-08-19 16h27.16.922702 -0400,
-3.75,-15.0,PSE,negs,100,95,95,0,left,1.090040541952476,None,,,,,,,,,0,95,95,89,116.9308820841834,,,,,,,,,,,,,,,,,,,,,,,,,,,,,,116.92432787502185,116.9308820841834,117.42307312507182,117.42307312507182,117.49863833398558,117.49863833398558,117.49863833398558,118.03360375016928,left,1.090040541952476,None,,,,,,,,brian,001,2025-08-19_16h26.13.057,tilt_mocs,2024.2.4,None,2025-08-19 16h27.16.922702 -0400,
2.6666666666666665,15.0,PSE,poss,100,96,96,0,right,1.1117324579972774,None,,,,,,,,,0,96,96,26,118.03932395903394,,,,,,,,,,,,,,,,,,,,,,,,,,,,,,118.03400900005363,118.03932395903394,118.53151679201983,118.53151679201983,118.60386783420108,118.60386783420108,118.60386783420108,119.15598875004798,right,1.1117324579972774,None,,,,,,,,brian,001,2025-08-19_16h26.13.057,tilt_mocs,2024.2.4,None,2025-08-19 16h27.16.922702 -0400,
-2.25,-15.0,p2,negs,100,97,97,0,left,1.0726013330277056,None,,,,,,,,,0,97,97,109,119.16492337500677,,,,,,,,,,,,,,,,,,,,,,,,,,,,,,119.15745904203504,119.16492337500677,119.65591420908459,119.65591420908459,119.73196754208766,119.73196754208766,119.73196754208766,120.25098658399656,left,1.0726013330277056,None,,,,,,,,brian,001,2025-08-19_16h26.13.057,tilt_mocs,2024.2.4,None,2025-08-19 16h27.16.922702 -0400,
-3.25,-15.0,p1,negs,100,98,98,0,left,1.1579837079625577,None,,,,,,,,,0,98,98,107,120.25919937505387,,,,,,,,,,,,,,,,,,,,,,,,,,,,,,120.25227787508629,120.25919937505387,120.74843279202469,120.74843279202469,120.82109295902774,120.82109295902774,120.82109295902774,121.422581625171,left,1.1579837079625577,None,,,,,,,,brian,001,2025-08-19_16h26.13.057,tilt_mocs,2024.2.4,None,2025-08-19 16h27.16.922702 -0400,
1.1666666666666663,15.0,m2,poss,100,99,99,0,right,1.364741750061512,None,,,,,,,,,0,99,99,0,121.43069495912641,,,,,,,,,,,,,,,,,,,,,,,,,,,,,,121.4237753751222,121.43069495912641,121.92366170906462,121.92366170906462,121.99868354201317,121.99868354201317,121.99868354201317,122.80088054202497,right,1.364741750061512,None,,,,,,,,brian,001,2025-08-19_16h26.13.057,tilt_mocs,2024.2.4,None,2025-08-19 16h27.16.922702 -0400,
-4.25,-15.0,m1,negs,100,100,100,0,left,1.0314253747928888,None,,,,,,,,,0,100,100,77,122.80872112512589,,,,,,,,,,,,,,,,,,,,,,,,,,,,,,122.80199391720816,122.80872112512589,123.29790791706182,123.29790791706182,123.3715995841194,123.3715995841194,123.3715995841194,123.85116079216823,left,1.0314253747928888,None,,,,,,,,brian,001,2025-08-19_16h26.13.057,tilt_mocs,2024.2.4,None,2025-08-19 16h27.16.922702 -0400,
-2.25,-15.0,p2,negs,100,101,101,0,right,1.2274452501442283,None,,,,,,,,,0,101,101,113,123.85904879216105,,,,,,,,,,,,,,,,,,,,,,,,,,,,,,123.85233891708776,123.85904879216105,124.3483616670128,124.3483616670128,124.42080108402297,124.42080108402297,124.42080108402297,125.08927470911294,right,1.2274452501442283,None,,,,,,,,brian,001,2025-08-19_16h26.13.057,tilt_mocs,2024.2.4,None,2025-08-19 16h27.16.922702 -0400,
1.1666666666666663,15.0,m2,poss,100,102,102,0,right,1.4189500000793487,None,,,,,,,,,0,102,102,6,125.09739275020547,,,,,,,,,,,,,,,,,,,,,,,,,,,,,,125.08972070901655,125.09739275020547,125.58735595899634,125.58735595899634,125.66423091711476,125.66423091711476,125.66423091711476,126.52168170898221,right,1.4189500000793487,None,,,,,,,,brian,001,2025-08-19_16h26.13.057,tilt_mocs,2024.2.4,None,2025-08-19 16h27.16.922702 -0400,
-5.25,-15.0,m2,negs,100,103,103,0,left,1.0391915829386562,None,,,,,,,,,0,103,103,60,126.53084516711533,,,,,,,,,,,,,,,,,,,,,,,,,,,,,,126.52290491713211,126.53084516711533,127.0221745420713,127.0221745420713,127.0975543751847,127.0975543751847,127.0975543751847,127.5730931670405,left,1.0391915829386562,None,,,,,,,,brian,001,2025-08-19_16h26.13.057,tilt_mocs,2024.2.4,None,2025-08-19 16h27.16.922702 -0400,
-3.75,-15.0,PSE,negs,100,104,104,0,left,1.4528105829376727,None,,,,,,,,,0,104,104,90,127.58097283402458,,,,,,,,,,,,,,,,,,,,,,,,,,,,,,127.57438120921142,127.58097283402458,128.0721122501418,128.0721122501418,128.1476621250622,128.1476621250622,128.1476621250622,129.03983570914716,left,1.4528105829376727,None,,,,,,,,brian,001,2025-08-19_16h26.13.057,tilt_mocs,2024.2.4,None,2025-08-19 16h27.16.922702 -0400,
1.1666666666666663,15.0,m2,poss,100,105,105,0,right,1.4566615410149097,None,,,,,,,,,0,105,105,7,129.04839945910498,,,,,,,,,,,,,,,,,,,,,,,,,,,,,,129.04116466711275,129.04839945910498,129.5403765840456,129.5403765840456,129.6151199170854,129.6151199170854,129.6151199170854,130.51494045904838,right,1.4566615410149097,None,,,,,,,,brian,001,2025-08-19_16h26.13.057,tilt_mocs,2024.2.4,None,2025-08-19 16h27.16.922702 -0400,
2.6666666666666665,15.0,PSE,poss,100,106,106,0,right,1.2300423751585186,None,,,,,,,,,0,106,106,25,130.52012304216623,,,,,,,,,,,,,,,,,,,,,,,,,,,,,,130.51592591707595,130.52012304216623,131.00728274998255,131.00728274998255,131.0873301671818,131.08194504212588,131.08194504212588,131.7556376249995,right,1.2300423751585186,None,,,,,,,,brian,001,2025-08-19_16h26.13.057,tilt_mocs,2024.2.4,None,2025-08-19 16h27.16.922702 -0400,
3.1666666666666665,15.0,p1,poss,100,107,107,0,right,1.0995432920753956,None,,,,,,,,,0,107,107,47,131.7640909170732,,,,,,,,,,,,,,,,,,,,,,,,,,,,,,131.75661029201,131.7640909170732,132.2570050000213,132.2570050000213,132.33189904200844,132.33189904200844,132.33189904200844,132.86756675015204,right,1.0995432920753956,None,,,,,,,,brian,001,2025-08-19_16h26.13.057,tilt_mocs,2024.2.4,None,2025-08-19 16h27.16.922702 -0400,
-3.25,-15.0,p1,negs,100,108,108,0,left,1.1248220421839505,None,,,,,,,,,0,108,108,99,132.87531141703948,,,,,,,,,,,,,,,,,,,,,,,,,,,,,,132.86855883407407,132.87531141703948,133.3652504591737,133.3652504591737,133.43712054216303,133.43712054216303,133.43712054216303,134.00877245911397,left,1.1248220421839505,None,,,,,,,,brian,001,2025-08-19_16h26.13.057,tilt_mocs,2024.2.4,None,2025-08-19 16h27.16.922702 -0400,
-5.25,-15.0,m2,negs,100,109,109,0,left,1.036671708105132,None,,,,,,,,,0,109,109,66,134.01428812509403,,,,,,,,,,,,,,,,,,,,,,,,,,,,,,134.00974524999037,134.01428812509403,134.50710012507625,134.50710012507625,134.5864482091274,134.58177470904775,134.58177470904775,135.0553602091968,left,1.036671708105132,None,,,,,,,,brian,001,2025-08-19_16h26.13.057,tilt_mocs,2024.2.4,None,2025-08-19 16h27.16.922702 -0400,
-0.4444444444444443,0.0,p1,noss,0,110,110,0,left,1.13649454084225,None,,,,,,,,,0,110,110,139,135.0641988341231,,,,,,,,,,,,,,,,,,,,,,,,,,,,,,135.05571570899338,135.0641988341231,135.54752120911144,135.54752120911144,135.63195737521164,135.61969429207966,135.61969429207966,136.20433691702783,left,1.13649454084225,None,,,,,,,,brian,001,2025-08-19_16h26.13.057,tilt_mocs,2024.2.4,None,2025-08-19 16h27.16.922702 -0400,
-3.25,-15.0,p1,negs,100,111,111,0,left,2.6717132499907166,None,,,,,,,,,0,111,111,102,136.21423045918345,,,,,,,,,,,,,,,,,,,,,,,,,,,,,,136.20469683408737,136.21423045918345,136.69854620913975,136.69854620913975,136.78177229198627,136.76955720898695,136.76955720898695,138.88802308402956,left,2.6717132499907166,None,,,,,,,,brian,001,2025-08-19_16h26.13.057,tilt_mocs,2024.2.4,None,2025-08-19 16h27.16.922702 -0400,
-3.75,-15.0,PSE,negs,100,112,112,0,right,2.780310875037685,None,,,,,,,,,0,112,112,88,138.89740875014104,,,,,,,,,,,,,,,,,,,,,,,,,,,,,,138.8891180001665,138.89740875014104,139.38720970903523,139.38720970903523,139.46459379210137,139.46459379210137,139.46459379210137,141.68356416700408,right,2.780310875037685,None,,,,,,,,brian,001,2025-08-19_16h26.13.057,tilt_mocs,2024.2.4,None,2025-08-19 16h27.16.922702 -0400,
4.166666666666666,15.0,p2,poss,100,113,113,0,right,0.9611134161241353,None,,,,,,,,,0,113,113,52,141.68933500000276,,,,,,,,,,,,,,,,,,,,,,,,,,,,,,141.68418062501587,141.68933500000276,142.1817357921973,142.1817357921973,142.2550394590944,142.2550394590944,142.2550394590944,142.65462462510914,right,0.9611134161241353,None,,,,,,,,brian,001,2025-08-19_16h26.13.057,tilt_mocs,2024.2.4,None,2025-08-19 16h27.16.922702 -0400,
-0.5555555555555557,0.0,p2,noss,0,114,114,0,right,1.4461993749719113,None,,,,,,,,,0,114,114,147,142.6641170422081,,,,,,,,,,,,,,,,,,,,,,,,,,,,,,142.6558893341571,142.6641170422081,143.1477689591702,143.1477689591702,143.23194462503307,143.21904795919545,143.21904795919545,144.11752825020812,right,1.4461993749719113,None,,,,,,,,brian,001,2025-08-19_16h26.13.057,tilt_mocs,2024.2.4,None,2025-08-19 16h27.16.922702 -0400,
2.1666666666666665,15.0,m1,poss,100,115,115,0,right,1.1308595829177648,None,,,,,,,,,0,115,115,15,144.12589500006288,,,,,,,,,,,,,,,,,,,,,,,,,,,,,,144.11885633412749,144.12589500006288,144.61512466706336,144.61512466706336,144.68611837504432,144.68611837504432,144.68611837504432,145.26701879198663,right,1.1308595829177648,None,,,,,,,,brian,001,2025-08-19_16h26.13.057,tilt_mocs,2024.2.4,None,2025-08-19 16h27.16.922702 -0400,
-0.4444444444444443,0.0,p1,noss,0,116,116,0,left,1.3447607499547303,None,,,,,,,,,0,116,116,138,145.27261112513952,,,,,,,,,,,,,,,,,,,,,,,,,,,,,,145.267520459136,145.27261112513952,145.7652230001986,145.7652230001986,145.83767154207453,145.83767154207453,145.83767154207453,146.62045679218136,left,1.3447607499547303,None,,,,,,,,brian,001,2025-08-19_16h26.13.057,tilt_mocs,2024.2.4,None,2025-08-19 16h27.16.922702 -0400,
-2.444444444444444,0.0,m2,noss,0,117,117,0,left,1.0070607499219477,None,,,,,,,,,0,117,117,122,146.6318520840723,,,,,,,,,,,,,,,,,,,,,,,,,,,,,,146.62142662517726,146.6318520840723,147.11430450016633,147.11430450016633,147.19856358412653,147.18678137520328,147.18678137520328,147.65092470915988,left,1.0070607499219477,None,,,,,,,,brian,001,2025-08-19_16h26.13.057,tilt_mocs,2024.2.4,None,2025-08-19 16h27.16.922702 -0400,
-4.25,-15.0,m1,negs,100,118,118,0,left,1.1164042090531439,None,,,,,,,,,0,118,118,74,147.6594253750518,,,,,,,,,,,,,,,,,,,,,,,,,,,,,,147.65246354206465,147.6594253750518,148.14761283411644,148.14761283411644,148.22046950017102,148.22046950017102,148.22046950017102,148.7840173339937,left,1.1164042090531439,None,,,,,,,,brian,001,2025-08-19_16h26.13.057,tilt_mocs,2024.2.4,None,2025-08-19 16h27.16.922702 -0400,
-4.25,-15.0,m1,negs,100,119,119,0,left,1.037642750190571,None,,,,,,,,,0,119,119,72,148.7923967500683,,,,,,,,,,,,,,,,,,,,,,,,,,,,,,148.7852862922009,148.7923967500683,149.28191583417356,149.28191583417356,149.3542771670036,149.3542771670036,149.3542771670036,149.83419979200698,left,1.037642750190571,None,,,,,,,,brian,001,2025-08-19_16h26.13.057,tilt_mocs,2024.2.4,None,2025-08-19 16h27.16.922702 -0400,
4.166666666666666,15.0,p2,poss,100,120,120,0,right,1.057276374893263,None,,,,,,,,,0,120,120,50,149.84290912514552,,,,,,,,,,,,,,,,,,,,,,,,,,,,,,149.83573795901611,149.84290912514552,150.3318116250448,150.3318116250448,150.40490641701035,150.40490641701035,150.40490641701035,150.90635258401744,right,1.057276374893263,None,,,,,,,,brian,001,2025-08-19_16h26.13.057,tilt_mocs,2024.2.4,None,2025-08-19 16h27.16.922702 -0400,
-3.25,-15.0,p1,negs,100,121,121,0,left,1.4095347500406206,None,,,,,,,,,0,121,121,98,150.91418270906433,,,,,,,,,,,,,,,,,,,,,,,,,,,,,,150.9075580420904,150.91418270906433,151.40653666714206,151.40653666714206,151.48185362503864,151.48185362503864,151.48185362503864,152.3342285421677,left,1.4095347500406206,None,,,,,,,,brian,001,2025-08-19_16h26.13.057,tilt_mocs,2024.2.4,None,2025-08-19 16h27.16.922702 -0400,
2.1666666666666665,15.0,m1,poss,100,122,122,0,right,1.0939851661678404,None,,,,,,,,,0,122,122,23,152.34248720901087,,,,,,,,,,,,,,,,,,,,,,,,,,,,,,152.33545116707683,152.34248720901087,152.83169625001028,152.83169625001028,152.9039512500167,152.9039512500167,152.9039512500167,153.43941041710787,right,1.0939851661678404,None,,,,,,,,brian,001,2025-08-19_16h26.13.057,tilt_mocs,2024.2.4,None,2025-08-19 16h27.16.922702 -0400,
-2.444444444444444,0.0,m2,noss,0,123,123,0,left,0.992327791871503,None,,,,,,,,,0,123,123,121,153.44713441701606,,,,,,,,,,,,,,,,,,,,,,,,,,,,,,153.44039483414963,153.44713441701606,153.94094700017013,153.94094700017013,154.01501874998212,154.0192717090249,154.0192717090249,154.4492068751715,left,0.992327791871503,None,,,,,,,,brian,001,2025-08-19_16h26.13.057,tilt_mocs,2024.2.4,None,2025-08-19 16h27.16.922702 -0400,
3.1666666666666665,15.0,p1,poss,100,124,124,0,right,1.0918032499030232,None,,,,,,,,,0,124,124,37,154.45363245904446,,,,,,,,,,,,,,,,,,,,,,,,,,,,,,154.44971525017172,154.45363245904446,154.94737258413807,154.94737258413807,155.0184869170189,155.0184869170189,155.0184869170189,155.54891866701655,right,1.0918032499030232,None,,,,,,,,brian,001,2025-08-19_16h26.13.057,tilt_mocs,2024.2.4,None,2025-08-19 16h27.16.922702 -0400,
1.1666666666666663,15.0,m2,poss,100,125,125,0,right,2.1699691670946777,None,,,,,,,,,0,125,125,4,155.5537960419897,,,,,,,,,,,,,,,,,,,,,,,,,,,,,,155.5494230419863,155.5537960419897,156.04743970907293,156.04743970907293,156.1198445840273,156.1198445840273,156.1198445840273,157.73411520919763,right,2.1699691670946777,None,,,,,,,,brian,001,2025-08-19_16h26.13.057,tilt_mocs,2024.2.4,None,2025-08-19 16h27.16.922702 -0400,
1.1666666666666663,15.0,m2,poss,100,126,126,0,left,1.4756935839541256,None,,,,,,,,,0,126,126,2,157.74177112500183,,,,,,,,,,,,,,,,,,,,,,,,,,,,,,157.7351152091287,157.74177112500183,158.23190120910294,158.23190120910294,158.30134570901282,158.30134570901282,158.30134570901282,159.2227486250922,left,1.4756935839541256,None,,,,,,,,brian,001,2025-08-19_16h26.13.057,tilt_mocs,2024.2.4,None,2025-08-19 16h27.16.922702 -0400,
4.166666666666666,15.0,p2,poss,100,127,127,0,right,1.023649499984458,None,,,,,,,,,0,127,127,57,159.23135900008492,,,,,,,,,,,,,,,,,,,,,,,,,,,,,,159.2240675841458,159.23135900008492,159.72362804203294,159.72362804203294,159.7983354171738,159.7983354171738,159.7983354171738,160.2674617092125,right,1.023649499984458,None,,,,,,,,brian,001,2025-08-19_16h26.13.057,tilt_mocs,2024.2.4,None,2025-08-19 16h27.16.922702 -0400,
-2.25,-15.0,p2,negs,100,128,128,0,right,1.112431125016883,None,,,,,,,,,0,128,128,112,160.27506591705605,,,,,,,,,,,,,,,,,,,,,,,,,,,,,,160.268441000022,160.27506591705605,160.76521820900962,160.76521820900962,160.83770958404057,160.83770958404057,160.83770958404057,161.38932733400725,right,1.112431125016883,None,,,,,,,,brian,001,2025-08-19_16h26.13.057,tilt_mocs,2024.2.4,None,2025-08-19 16h27.16.922702 -0400,
2.6666666666666665,15.0,PSE,poss,100,129,129,0,right,1.073861583136022,None,,,,,,,,,0,129,129,27,161.39719783398323,,,,,,,,,,,,,,,,,,,,,,,,,,,,,,161.39033291698433,161.39719783398323,161.88924170914106,161.88924170914106,161.9651660420932,161.9651660420932,161.9651660420932,162.4730456250254,right,1.073861583136022,None,,,,,,,,brian,001,2025-08-19_16h26.13.057,tilt_mocs,2024.2.4,None,2025-08-19 16h27.16.922702 -0400,
-2.25,-15.0,p2,negs,100,130,130,0,right,1.1914428330492228,None,,,,,,,,,0,130,130,117,162.48100825003348,,,,,,,,,,,,,,,,,,,,,,,,,,,,,,162.47407962498255,162.48100825003348,162.97309912508354,162.97309912508354,163.0484756671358,163.0484756671358,163.0484756671358,163.68418379221112,right,1.1914428330492228,None,,,,,,,,brian,001,2025-08-19_16h26.13.057,tilt_mocs,2024.2.4,None,2025-08-19 16h27.16.922702 -0400,
2.1666666666666665,15.0,m1,poss,100,131,131,0,right,1.8746002078987658,None,,,,,,,,,0,131,131,21,163.69226104207337,,,,,,,,,,,,,,,,,,,,,,,,,,,,,,163.68533333414234,163.69226104207337,164.1817673339974,164.1817673339974,164.25453762500547,164.25453762500547,164.25453762500547,165.57316945912316,right,1.8746002078987658,None,,,,,,,,brian,001,2025-08-19_16h26.13.057,tilt_mocs,2024.2.4,None,2025-08-19 16h27.16.922702 -0400,
1.1666666666666663,15.0,m2,poss,100,132,132,0,left,1.1649568749126047,None,,,,,,,,,0,132,132,9,165.58135612518527,,,,,,,,,,,,,,,,,,,,,,,,,,,,,,165.57422900013626,165.58135612518527,166.07284591719508,166.07284591719508,166.14870825014077,166.14870825014077,166.14870825014077,166.75093800015748,left,1.1649568749126047,None,,,,,,,,brian,001,2025-08-19_16h26.13.057,tilt_mocs,2024.2.4,None,2025-08-19 16h27.16.922702 -0400,
-2.25,-15.0,p2,negs,100,133,133,0,left,1.3079713329207152,None,,,,,,,,,0,133,133,119,166.7597382091917,,,,,,,,,,,,,,,,,,,,,,,,,,,,,,166.75256208400242,166.7597382091917,167.24740750016645,167.24740750016645,167.32260354212485,167.32260354212485,167.32260354212485,168.07279995898716,left,1.3079713329207152,None,,,,,,,,brian,001,2025-08-19_16h26.13.057,tilt_mocs,2024.2.4,None,2025-08-19 16h27.16.922702 -0400,
2.1666666666666665,15.0,m1,poss,100,134,134,0,right,1.9358054171316326,None,,,,,,,,,0,134,134,19,168.0811805841513,,,,,,,,,,,,,,,,,,,,,,,,,,,,,,168.0738356250804,168.0811805841513,168.572349708993,168.572349708993,168.6484064590186,168.6484064590186,168.6484064590186,170.02034366712905,right,1.9358054171316326,None,,,,,,,,brian,001,2025-08-19_16h26.13.057,tilt_mocs,2024.2.4,None,2025-08-19 16h27.16.922702 -0400,
2.6666666666666665,15.0,PSE,poss,100,135,135,0,right,1.2862899580504745,None,,,,,,,,,0,135,135,31,170.03103429218754,,,,,,,,,,,,,,,,,,,,,,,,,,,,,,170.0214083751198,170.03103429218754,170.51502841711044,170.51502841711044,170.598316000076,170.58619483420625,170.58619483420625,171.3225518341642,right,1.2862899580504745,None,,,,,,,,brian,001,2025-08-19_16h26.13.057,tilt_mocs,2024.2.4,None,2025-08-19 16h27.16.922702 -0400,
-3.75,-15.0,PSE,negs,100,136,136,0,left,1.1314202088396996,None,,,,,,,,,0,136,136,84,171.330906416988,,,,,,,,,,,,,,,,,,,,,,,,,,,,,,171.32358225015923,171.330906416988,171.82387908408418,171.82387908408418,171.8983439169824,171.8983439169824,171.8983439169824,172.4666625841055,left,1.1314202088396996,None,,,,,,,,brian,001,2025-08-19_16h26.13.057,tilt_mocs,2024.2.4,None,2025-08-19 16h27.16.922702 -0400,
-3.25,-15.0,p1,negs,100,137,137,0,left,1.3258710829541087,None,,,,,,,,,0,137,137,105,172.4747900001239,,,,,,,,,,,,,,,,,,,,,,,,,,,,,,172.46774179209024,172.4747900001239,172.96452158410102,172.96452158410102,173.03717362508178,173.03717362508178,173.03717362508178,173.8057938341517,left,1.3258710829541087,None,,,,,,,,brian,001,2025-08-19_16h26.13.057,tilt_mocs,2024.2.4,None,2025-08-19 16h27.16.922702 -0400,
3.1666666666666665,15.0,p1,poss,100,138,138,0,right,1.098462542053312,None,,,,,,,,,0,138,138,39,173.8141582920216,,,,,,,,,,,,,,,,,,,,,,,,,,,,,,173.8067700001411,173.8141582920216,174.30699741700664,174.30699741700664,174.38164183404297,174.38164183404297,174.38164183404297,174.91759354202077,right,1.098462542053312,None,,,,,,,,brian,001,2025-08-19_16h26.13.057,tilt_mocs,2024.2.4,None,2025-08-19 16h27.16.922702 -0400,
3.1666666666666665,15.0,p1,poss,100,139,139,0,right,1.175896457862109,None,,,,,,,,,0,139,139,42,174.92512350017205,,,,,,,,,,,,,,,,,,,,,,,,,,,,,,174.91860050009564,174.92512350017205,175.415226417128,175.415226417128,175.48804895905778,175.48804895905778,175.48804895905778,176.10599266714416,right,1.175896457862109,None,,,,,,,,brian,001,2025-08-19_16h26.13.057,tilt_mocs,2024.2.4,None,2025-08-19 16h27.16.922702 -0400,
-2.25,-15.0,p2,negs,100,140,140,0,right,1.072242374997586,None,,,,,,,,,0,140,140,115,176.11410091700964,,,,,,,,,,,,,,,,,,,,,,,,,,,,,,176.10720187518746,176.11410091700964,176.60734720900655,176.60734720900655,176.68177999998443,176.68177999998443,176.68177999998443,177.18842929205857,right,1.072242374997586,None,,,,,,,,brian,001,2025-08-19_16h26.13.057,tilt_mocs,2024.2.4,None,2025-08-19 16h27.16.922702 -0400,
-4.25,-15.0,m1,negs,100,141,141,0,left,1.3457338330335915,None,,,,,,,,,0,141,141,75,177.19730987516232,,,,,,,,,,,,,,,,,,,,,,,,,,,,,,177.189196042018,177.19730987516232,177.6900695420336,177.6900695420336,177.76519962516613,177.76519962516613,177.76519962516613,178.55071579199284,left,1.3457338330335915,None,,,,,,,,brian,001,2025-08-19_16h26.13.057,tilt_mocs,2024.2.4,None,2025-08-19 16h27.16.922702 -0400,
4.166666666666666,15.0,p2,poss,100,142,142,0,right,1.0879760831594467,None,,,,,,,,,0,142,142,56,178.5589262091089,,,,,,,,,,,,,,,,,,,,,,,,,,,,,,178.55175375007093,178.5589262091089,179.04837933415547,179.04837933415547,179.12062100018375,179.12062100018375,179.12062100018375,179.6505200001411,right,1.0879760831594467,None,,,,,,,,brian,001,2025-08-19_16h26.13.057,tilt_mocs,2024.2.4,None,2025-08-19 16h27.16.922702 -0400,
2.6666666666666665,15.0,PSE,poss,100,143,143,0,right,1.161453708074987,None,,,,,,,,,0,143,143,33,179.65842375019565,,,,,,,,,,,,,,,,,,,,,,,,,,,,,,179.65154904220253,179.65842375019565,180.14839275018312,180.14839275018312,180.22123050014488,180.22123050014488,180.22123050014488,180.82270679203793,right,1.161453708074987,None,,,,,,,,brian,001,2025-08-19_16h26.13.057,tilt_mocs,2024.2.4,None,2025-08-19 16h27.16.922702 -0400,
2.6666666666666665,15.0,PSE,poss,100,144,144,0,right,1.6913163329008967,None,,,,,,,,,0,144,144,30,180.83078416716307,,,,,,,,,,,,,,,,,,,,,,,,,,,,,,180.8237274591811,180.83078416716307,181.32321720919572,181.32321720919572,181.39845920912921,181.39845920912921,181.39845920912921,182.5333133339882,right,1.6913163329008967,None,,,,,,,,brian,001,2025-08-19_16h26.13.057,tilt_mocs,2024.2.4,None,2025-08-19 16h27.16.922702 -0400,
1.1666666666666663,15.0,m2,poss,100,145,145,0,right,3.5107637089677155,None,,,,,,,,,0,145,145,11,182.5412037090864,,,,,,,,,,,,,,,,,,,,,,,,,,,,,,182.53427329217084,182.5412037090864,183.03154854220338,183.03154854220338,183.1048882091418,183.1048882091418,183.1048882091418,186.05553862499073,right,3.5107637089677155,None,,,,,,,,brian,001,2025-08-19_16h26.13.057,tilt_mocs,2024.2.4,None,2025-08-19 16h27.16.922702 -0400,
-1.4444444444444442,0.0,m1,noss,0,146,146,0,left,0.987031500088051,None,,,,,,,,,0,146,146,129,186.06403141701594,,,,,,,,,,,,,,,,,,,,,,,,,,,,,,186.05685491720214,186.06403141701594,186.55637412518263,186.55637412518263,186.63165412517264,186.63165412517264,186.63165412517264,187.0554124591872,left,0.987031500088051,None,,,,,,,,brian,001,2025-08-19_16h26.13.057,tilt_mocs,2024.2.4,None,2025-08-19 16h27.16.922702 -0400,
-3.75,-15.0,PSE,negs,100,147,147,0,left,1.082436292199418,None,,,,,,,,,0,147,147,95,187.06395712518133,,,,,,,,,,,,,,,,,,,,,,,,,,,,,,187.05636954214424,187.06395712518133,187.55601333407685,187.55601333407685,187.63177858409472,187.63177858409472,187.63177858409472,188.1507407920435,left,1.082436292199418,None,,,,,,,,brian,001,2025-08-19_16h26.13.057,tilt_mocs,2024.2.4,None,2025-08-19 16h27.16.922702 -0400,
-2.25,-15.0,p2,negs,100,148,148,0,right,1.258715125033632,None,,,,,,,,,0,148,148,118,188.1586132501252,,,,,,,,,,,,,,,,,,,,,,,,,,,,,,188.15185166709125,188.1586132501252,188.648521625204,188.648521625204,188.7202709170524,188.7202709170524,188.7202709170524,189.42287091701292,right,1.258715125033632,None,,,,,,,,brian,001,2025-08-19_16h26.13.057,tilt_mocs,2024.2.4,None,2025-08-19 16h27.16.922702 -0400,
-0.5555555555555557,0.0,p2,noss,0,149,149,0,right,1.3358536248560995,None,,,,,,,,,0,149,149,145,189.4306472921744,,,,,,,,,,,,,,,,,,,,,,,,,,,,,,189.42382508399896,189.4306472921744,189.92414266709238,189.92414266709238,189.99834220902994,189.99834220902994,189.99834220902994,190.77033641701564,right,1.3358536248560995,None,,,,,,,,brian,001,2025-08-19_16h26.13.057,tilt_mocs,2024.2.4,None,2025-08-19 16h27.16.922702 -0400,
,,,,,,,,,,,,,,,,,,,,,,,,,,,,,,,,,,,,,,,,,,,,,,,,,,,,,,,,,,,,,,,,190.7705162090715,190.780559042003,190.780559042003,191.65341541706584,left,0.8691010000184178,None,brian,001,2025-08-19_16h26.13.057,tilt_mocs,2024.2.4,None,2025-08-19 16h27.16.922702 -0400,
