center,surround,type,surr_type,surr_opacity,thisN,thisTrialN,thisRepN,resp.keys,resp.rt,resp.duration,practice_no_time.thisRepN,practice_no_time.thisTrialN,practice_no_time.thisN,practice_no_time.thisIndex,practice_timed.thisRepN,practice_timed.thisTrialN,practice_timed.thisN,practice_timed.thisIndex,trials.thisRepN,trials.thisTrialN,trials.thisN,trials.thisIndex,thisRow.t,notes,instr.started,text_5.started,key_resp_2.started,instr.stopped,key_resp_2.keys,key_resp_2.rt,key_resp_2.duration,instr2.started,text_6.started,key_resp_6.started,instr2.stopped,key_resp_6.keys,key_resp_6.rt,key_resp_6.duration,instr3.started,text_8.started,key_resp_5.started,instr3.stopped,key_resp_5.keys,key_resp_5.rt,key_resp_5.duration,start_instr.started,text_13.started,key_resp_8.started,start_instr.stopped,key_resp_8.keys,key_resp_8.rt,key_resp_8.duration,trial.started,resp.started,surround_grating.started,center_grating.started,text_4.started,surround_grating.stopped,center_grating.stopped,trial.stopped,trials.resp.keys,trials.resp.rt,trials.resp.duration,end.started,text_14.started,key_resp.started,end.stopped,key_resp.keys,key_resp.rt,key_resp.duration,participant,session,date,expName,psychopyVersion,frameRate,expStart,
,,,,,,,,,,,,,,,,,,,,,,,,,0.014316249871626496,0.028508999850600958,0.028508999850600958,4.108287499984726,space,4.074536291882396,None,,,,,,,,,,,,,,,,,,,,,,,,,,,,,,,,,,,,,,,,daniel,001,2025-08-18_18h40.46.519,tilt_mocs,2024.2.4,None,2025-08-18 18h40.55.464832 -0400,
,,,,,,,,,,,,,,,,,,,,,,,,,,,,,,,,4.108377916971222,4.134645333047956,4.134645333047956,5.491663916967809,space,1.352770916884765,None,,,,,,,,,,,,,,,,,,,,,,,,,,,,,,,,,daniel,001,2025-08-18_18h40.46.519,tilt_mocs,2024.2.4,None,2025-08-18 18h40.55.464832 -0400,
,,,,,,,,,,,,,,,,,,,,,,,,,,,,,,,,,,,,,,,5.506415667012334,5.516166249988601,5.516166249988601,8.051903124898672,space,2.5280739590525627,None,,,,,,,,,,,,,,,,,,,,,,,,,,daniel,001,2025-08-18_18h40.46.519,tilt_mocs,2024.2.4,None,2025-08-18 18h40.55.464832 -0400,
,,,,,,,,,,,,,,,,,,,,,,,,,,,,,,,,,,,,,,,,,,,,,,8.059464375022799,8.066924375016242,8.066924375016242,18.319770083064213,space,10.245421415893361,None,,,,,,,,,,,,,,,,,,,daniel,001,2025-08-18_18h40.46.519,tilt_mocs,2024.2.4,None,2025-08-18 18h40.55.464832 -0400,
-3.25,-15.0,p1,negs,100,0,0,0,left,1.7123849159106612,None,,,,,,,,,0,0,0,103,18.34438645793125,,,,,,,,,,,,,,,,,,,,,,,,,,,,,,18.336756458040327,18.34438645793125,18.839436542009935,18.839436542009935,18.889265541918576,18.917523166863248,18.917523166863248,20.058848707936704,left,1.7123849159106612,None,,,,,,,,daniel,001,2025-08-18_18h40.46.519,tilt_mocs,2024.2.4,None,2025-08-18 18h40.55.464832 -0400,
-1.4444444444444442,0.0,m1,noss,0,1,1,0,right,1.0290304578375071,None,,,,,,,,,0,1,1,131,20.174055999843404,,,,,,,,,,,,,,,,,,,,,,,,,,,,,,20.059988958062604,20.174055999843404,20.55848279199563,20.55848279199563,20.634532666997984,20.634532666997984,20.634532666997984,21.208076332928613,right,1.0290304578375071,None,,,,,,,,daniel,001,2025-08-18_18h40.46.519,tilt_mocs,2024.2.4,None,2025-08-18 18h40.55.464832 -0400,
2.1666666666666665,15.0,m1,poss,100,2,2,0,right,0.9531762080732733,None,,,,,,,,,0,2,2,16,21.216799332993105,,,,,,,,,,,,,,,,,,,,,,,,,,,,,,21.2091377498582,21.216799332993105,21.710557583021,21.710557583021,21.78454316686839,21.79035170795396,21.79035170795396,22.175392417004332,right,0.9531762080732733,None,,,,,,,,daniel,001,2025-08-18_18h40.46.519,tilt_mocs,2024.2.4,None,2025-08-18 18h40.55.464832 -0400,
-0.4444444444444443,0.0,p1,noss,0,3,3,0,right,0.9734249578323215,None,,,,,,,,,0,3,3,143,22.183256041957065,,,,,,,,,,,,,,,,,,,,,,,,,,,,,,22.17640870786272,22.183256041957065,22.676109499996528,22.676109499996528,22.751025791978464,22.751025791978464,22.751025791978464,23.158626707969233,right,0.9734249578323215,None,,,,,,,,daniel,001,2025-08-18_18h40.46.519,tilt_mocs,2024.2.4,None,2025-08-18 18h40.55.464832 -0400,
-3.75,-15.0,PSE,negs,100,4,4,0,right,1.0546385829802603,None,,,,,,,,,0,4,4,85,23.16663054190576,,,,,,,,,,,,,,,,,,,,,,,,,,,,,,23.159691999899223,23.16663054190576,23.660275999922305,23.660275999922305,23.734496125020087,23.734496125020087,23.734496125020087,24.224757333053276,right,1.0546385829802603,None,,,,,,,,daniel,001,2025-08-18_18h40.46.519,tilt_mocs,2024.2.4,None,2025-08-18 18h40.55.464832 -0400,
-3.25,-15.0,p1,negs,100,5,5,0,right,1.215808792039752,None,,,,,,,,,0,5,5,104,24.23331291694194,,,,,,,,,,,,,,,,,,,,,,,,,,,,,,24.225712582934648,24.23331291694194,24.72611420787871,24.72611420787871,24.801051874877885,24.801051874877885,24.801051874877885,25.453569500008598,right,1.215808792039752,None,,,,,,,,daniel,001,2025-08-18_18h40.46.519,tilt_mocs,2024.2.4,None,2025-08-18 18h40.55.464832 -0400,
3.1666666666666665,15.0,p1,poss,100,6,6,0,right,1.1656153749208897,None,,,,,,,,,0,6,6,38,25.462595749879256,,,,,,,,,,,,,,,,,,,,,,,,,,,,,,25.45535183302127,25.462595749879256,25.951241750037298,25.951241750037298,26.023775832960382,26.023775832960382,26.023775832960382,26.636570499977097,right,1.1656153749208897,None,,,,,,,,daniel,001,2025-08-18_18h40.46.519,tilt_mocs,2024.2.4,None,2025-08-18 18h40.55.464832 -0400,
-2.25,-15.0,p2,negs,100,7,7,0,right,1.7421855418942869,None,,,,,,,,,0,7,7,112,26.644690957851708,,,,,,,,,,,,,,,,,,,,,,,,,,,,,,26.637897833017632,26.644690957851708,27.13444050005637,27.13444050005637,27.207518083043396,27.207518083043396,27.207518083043396,28.391749457921833,right,1.7421855418942869,None,,,,,,,,daniel,001,2025-08-18_18h40.46.519,tilt_mocs,2024.2.4,None,2025-08-18 18h40.55.464832 -0400,
-0.5555555555555557,0.0,p2,noss,0,8,8,0,right,1.7360392499249429,None,,,,,,,,,0,8,8,148,28.399921250063926,,,,,,,,,,,,,,,,,,,,,,,,,,,,,,28.392792749917135,28.399921250063926,28.89363249996677,28.89363249996677,28.96778079192154,28.96778079192154,28.96778079192154,30.14125720784068,right,1.7360392499249429,None,,,,,,,,daniel,001,2025-08-18_18h40.46.519,tilt_mocs,2024.2.4,None,2025-08-18 18h40.55.464832 -0400,
2.6666666666666665,15.0,PSE,poss,100,9,9,0,right,2.2992342500947416,None,,,,,,,,,0,9,9,27,30.14997116685845,,,,,,,,,,,,,,,,,,,,,,,,,,,,,,30.14254825003445,30.14997116685845,30.64280274999328,30.64280274999328,30.71773024997674,30.71773024997674,30.71773024997674,32.45313595794141,right,2.2992342500947416,None,,,,,,,,daniel,001,2025-08-18_18h40.46.519,tilt_mocs,2024.2.4,None,2025-08-18 18h40.55.464832 -0400,
-3.25,-15.0,p1,negs,100,10,10,0,right,1.137123666005209,None,,,,,,,,,0,10,10,102,32.461313457926735,,,,,,,,,,,,,,,,,,,,,,,,,,,,,,32.45424604206346,32.461313457926735,32.95037145796232,32.95037145796232,33.023851125035435,33.023851125035435,33.023851125035435,33.60314887505956,right,1.137123666005209,None,,,,,,,,daniel,001,2025-08-18_18h40.46.519,tilt_mocs,2024.2.4,None,2025-08-18 18h40.55.464832 -0400,
1.1666666666666663,15.0,m2,poss,100,11,11,0,right,1.2414483749307692,None,,,,,,,,,0,11,11,7,33.61180029204115,,,,,,,,,,,,,,,,,,,,,,,,,,,,,,33.60453708283603,33.61180029204115,34.10103783290833,34.10103783290833,34.17398087494075,34.17398087494075,34.17398087494075,34.858576708007604,right,1.2414483749307692,None,,,,,,,,daniel,001,2025-08-18_18h40.46.519,tilt_mocs,2024.2.4,None,2025-08-18 18h40.55.464832 -0400,
-4.25,-15.0,m1,negs,100,12,12,0,left,1.1453983751125634,None,,,,,,,,,0,12,12,81,34.86685837502591,,,,,,,,,,,,,,,,,,,,,,,,,,,,,,34.859622166957706,34.86685837502591,35.35972791700624,35.35972791700624,35.434324875008315,35.434324875008315,35.434324875008315,36.01992224995047,left,1.1453983751125634,None,,,,,,,,daniel,001,2025-08-18_18h40.46.519,tilt_mocs,2024.2.4,None,2025-08-18 18h40.55.464832 -0400,
-5.25,-15.0,m2,negs,100,13,13,0,left,1.074932417133823,None,,,,,,,,,0,13,13,66,36.0280414998997,,,,,,,,,,,,,,,,,,,,,,,,,,,,,,36.020969207864255,36.0280414998997,36.517060041893274,36.517060041893274,36.5885354578495,36.5885354578495,36.5885354578495,37.10853166691959,left,1.074932417133823,None,,,,,,,,daniel,001,2025-08-18_18h40.46.519,tilt_mocs,2024.2.4,None,2025-08-18 18h40.55.464832 -0400,
3.1666666666666665,15.0,p1,poss,100,14,14,0,right,0.969561125151813,None,,,,,,,,,0,14,14,46,37.116920582950115,,,,,,,,,,,,,,,,,,,,,,,,,,,,,,37.10961262485944,37.116920582950115,37.60915262484923,37.60915262484923,37.68442162498832,37.68442162498832,37.68442162498832,38.0913030419033,right,0.969561125151813,None,,,,,,,,daniel,001,2025-08-18_18h40.46.519,tilt_mocs,2024.2.4,None,2025-08-18 18h40.55.464832 -0400,
3.1666666666666665,15.0,p1,poss,100,15,15,0,right,0.9533362921793014,None,,,,,,,,,0,15,15,40,38.099951582960784,,,,,,,,,,,,,,,,,,,,,,,,,,,,,,38.09233166696504,38.099951582960784,38.58933529187925,38.58933529187925,38.66735558304936,38.66735558304936,38.66735558304936,39.05807854188606,right,0.9533362921793014,None,,,,,,,,daniel,001,2025-08-18_18h40.46.519,tilt_mocs,2024.2.4,None,2025-08-18 18h40.55.464832 -0400,
3.1666666666666665,15.0,p1,poss,100,16,16,0,right,0.9236117920372635,None,,,,,,,,,0,16,16,39,39.06687512504868,,,,,,,,,,,,,,,,,,,,,,,,,,,,,,39.05918045784347,39.06687512504868,39.56010608305223,39.56010608305223,39.63459216686897,39.63459216686897,39.63459216686897,39.99219250003807,right,0.9236117920372635,None,,,,,,,,daniel,001,2025-08-18_18h40.46.519,tilt_mocs,2024.2.4,None,2025-08-18 18h40.55.464832 -0400,
2.1666666666666665,15.0,m1,poss,100,17,17,0,right,1.1099781249649823,None,,,,,,,,,0,17,17,21,39.999794624978676,,,,,,,,,,,,,,,,,,,,,,,,,,,,,,39.99319070787169,39.999794624978676,40.49321824987419,40.49321824987419,40.56771874986589,40.56771874986589,40.56771874986589,41.11930666700937,right,1.1099781249649823,None,,,,,,,,daniel,001,2025-08-18_18h40.46.519,tilt_mocs,2024.2.4,None,2025-08-18 18h40.55.464832 -0400,
-0.9444444444444444,0.0,PSE,noss,0,18,18,0,left,1.7119607499334961,None,,,,,,,,,0,18,18,134,41.12702816701494,,,,,,,,,,,,,,,,,,,,,,,,,,,,,,41.12027475005016,41.12702816701494,41.61726220790297,41.61726220790297,41.69033379200846,41.69033379200846,41.69033379200846,42.8523492498789,left,1.7119607499334961,None,,,,,,,,daniel,001,2025-08-18_18h40.46.519,tilt_mocs,2024.2.4,None,2025-08-18 18h40.55.464832 -0400,
-2.444444444444444,0.0,m2,noss,0,19,19,0,left,0.9102312501054257,None,,,,,,,,,0,19,19,123,42.859416499966756,,,,,,,,,,,,,,,,,,,,,,,,,,,,,,42.853733291849494,42.859416499966756,43.35117574990727,43.35117574990727,43.424276457866654,43.424276457866654,43.424276457866654,43.776139833033085,left,0.9102312501054257,None,,,,,,,,daniel,001,2025-08-18_18h40.46.519,tilt_mocs,2024.2.4,None,2025-08-18 18h40.55.464832 -0400,
-0.5555555555555557,0.0,p2,noss,0,20,20,0,right,0.9431934589520097,None,,,,,,,,,0,20,20,149,43.78410845785402,,,,,,,,,,,,,,,,,,,,,,,,,,,,,,43.77732962486334,43.78410845785402,44.27634345786646,44.27634345786646,44.351071666926146,44.351071666926146,44.351071666926146,44.736731291981414,right,0.9431934589520097,None,,,,,,,,daniel,001,2025-08-18_18h40.46.519,tilt_mocs,2024.2.4,None,2025-08-18 18h40.55.464832 -0400,
-5.25,-15.0,m2,negs,100,21,21,0,left,0.932222583098337,None,,,,,,,,,0,21,21,61,44.745435166871175,,,,,,,,,,,,,,,,,,,,,,,,,,,,,,44.73826524987817,44.745435166871175,45.23333374992944,45.23333374992944,45.30805499991402,45.30805499991402,45.30805499991402,45.68621087493375,left,0.932222583098337,None,,,,,,,,daniel,001,2025-08-18_18h40.46.519,tilt_mocs,2024.2.4,None,2025-08-18 18h40.55.464832 -0400,
-4.25,-15.0,m1,negs,100,22,22,0,left,1.083849374903366,None,,,,,,,,,0,22,22,73,45.69410529197194,,,,,,,,,,,,,,,,,,,,,,,,,,,,,,45.68743354198523,45.69410529197194,46.18451887485571,46.18451887485571,46.257140666944906,46.257140666944906,46.257140666944906,46.786644499981776,left,1.083849374903366,None,,,,,,,,daniel,001,2025-08-18_18h40.46.519,tilt_mocs,2024.2.4,None,2025-08-18 18h40.55.464832 -0400,
-5.25,-15.0,m2,negs,100,23,23,0,left,1.082667666953057,None,,,,,,,,,0,23,23,63,46.795473916921765,,,,,,,,,,,,,,,,,,,,,,,,,,,,,,46.78829466691241,46.795473916921765,47.28443408291787,47.28443408291787,47.35551404184662,47.35551404184662,47.35551404184662,47.88621074985713,left,1.082667666953057,None,,,,,,,,daniel,001,2025-08-18_18h40.46.519,tilt_mocs,2024.2.4,None,2025-08-18 18h40.55.464832 -0400,
-5.25,-15.0,m2,negs,100,24,24,0,left,1.1424390408210456,None,,,,,,,,,0,24,24,65,47.89452504203655,,,,,,,,,,,,,,,,,,,,,,,,,,,,,,47.88738574995659,47.89452504203655,48.38443204201758,48.38443204201758,48.4562965829391,48.4562965829391,48.4562965829391,49.04025049996562,left,1.1424390408210456,None,,,,,,,,daniel,001,2025-08-18_18h40.46.519,tilt_mocs,2024.2.4,None,2025-08-18 18h40.55.464832 -0400,
1.1666666666666663,15.0,m2,poss,100,25,25,0,right,0.9435804579406977,None,,,,,,,,,0,25,25,6,49.050909749930725,,,,,,,,,,,,,,,,,,,,,,,,,,,,,,49.0408320419956,49.050909749930725,49.543964416952804,49.543964416952804,49.61763337487355,49.61763337487355,49.61763337487355,50.00355691695586,right,0.9435804579406977,None,,,,,,,,daniel,001,2025-08-18_18h40.46.519,tilt_mocs,2024.2.4,None,2025-08-18 18h40.55.464832 -0400,
-3.75,-15.0,PSE,negs,100,26,26,0,right,1.0283207918982953,None,,,,,,,,,0,26,26,86,50.011933707864955,,,,,,,,,,,,,,,,,,,,,,,,,,,,,,50.004959541838616,50.011933707864955,50.50058224983513,50.50058224983513,50.57143237488344,50.57143237488344,50.57143237488344,51.05237629194744,right,1.0283207918982953,None,,,,,,,,daniel,001,2025-08-18_18h40.46.519,tilt_mocs,2024.2.4,None,2025-08-18 18h40.55.464832 -0400,
2.6666666666666665,15.0,PSE,poss,100,27,27,0,right,0.9175211670808494,None,,,,,,,,,0,27,27,29,51.06030137487687,,,,,,,,,,,,,,,,,,,,,,,,,,,,,,51.05337220802903,51.06030137487687,51.5508654168807,51.5508654168807,51.62425774987787,51.62425774987787,51.62425774987787,51.98643058305606,right,0.9175211670808494,None,,,,,,,,daniel,001,2025-08-18_18h40.46.519,tilt_mocs,2024.2.4,None,2025-08-18 18h40.55.464832 -0400,
4.166666666666666,15.0,p2,poss,100,28,28,0,right,1.0917994170449674,None,,,,,,,,,0,28,28,52,51.99442999996245,,,,,,,,,,,,,,,,,,,,,,,,,,,,,,51.987572541926056,51.99442999996245,52.48435604199767,52.48435604199767,52.556950124911964,52.556950124911964,52.556950124911964,53.09135662484914,right,1.0917994170449674,None,,,,,,,,daniel,001,2025-08-18_18h40.46.519,tilt_mocs,2024.2.4,None,2025-08-18 18h40.55.464832 -0400,
2.6666666666666665,15.0,PSE,poss,100,29,29,0,right,1.0461903749965131,None,,,,,,,,,0,29,29,33,53.09995525004342,,,,,,,,,,,,,,,,,,,,,,,,,,,,,,53.092380499932915,53.09995525004342,53.591912125004455,53.591912125004455,53.667645416921005,53.667645416921005,53.667645416921005,54.152761542005464,right,1.0461903749965131,None,,,,,,,,daniel,001,2025-08-18_18h40.46.519,tilt_mocs,2024.2.4,None,2025-08-18 18h40.55.464832 -0400,
4.166666666666666,15.0,p2,poss,100,30,30,0,right,0.9763447081204504,None,,,,,,,,,0,30,30,51,54.16055687493645,,,,,,,,,,,,,,,,,,,,,,,,,,,,,,54.15397516684607,54.16055687493645,54.64999899989925,54.64999899989925,54.72421474987641,54.72421474987641,54.72421474987641,55.14151637488976,right,0.9763447081204504,None,,,,,,,,daniel,001,2025-08-18_18h40.46.519,tilt_mocs,2024.2.4,None,2025-08-18 18h40.55.464832 -0400,
-0.9444444444444444,0.0,PSE,noss,0,31,31,0,left,1.4141941668931395,None,,,,,,,,,0,31,31,132,55.14987091696821,,,,,,,,,,,,,,,,,,,,,,,,,,,,,,55.142474374966696,55.14987091696821,55.63966720784083,55.63966720784083,55.71672262484208,55.71672262484208,55.71672262484208,56.56938570784405,left,1.4141941668931395,None,,,,,,,,daniel,001,2025-08-18_18h40.46.519,tilt_mocs,2024.2.4,None,2025-08-18 18h40.55.464832 -0400,
2.1666666666666665,15.0,m1,poss,100,32,32,0,right,1.060448459116742,None,,,,,,,,,0,32,32,13,56.576979582896456,,,,,,,,,,,,,,,,,,,,,,,,,,,,,,56.570642499951646,56.576979582896456,57.06692554196343,57.06692554196343,57.14065325004049,57.14065325004049,57.14065325004049,57.64191449992359,right,1.060448459116742,None,,,,,,,,daniel,001,2025-08-18_18h40.46.519,tilt_mocs,2024.2.4,None,2025-08-18 18h40.55.464832 -0400,
-4.25,-15.0,m1,negs,100,33,33,0,left,1.0732488750945777,None,,,,,,,,,0,33,33,72,57.65004920796491,,,,,,,,,,,,,,,,,,,,,,,,,,,,,,57.642911250004545,57.65004920796491,58.14283312484622,58.14283312484622,58.217669083038345,58.217669083038345,58.217669083038345,58.735700082965195,left,1.0732488750945777,None,,,,,,,,daniel,001,2025-08-18_18h40.46.519,tilt_mocs,2024.2.4,None,2025-08-18 18h40.55.464832 -0400,
-1.4444444444444442,0.0,m1,noss,0,34,34,0,right,1.1764398331288248,None,,,,,,,,,0,34,34,126,58.74329420784488,,,,,,,,,,,,,,,,,,,,,,,,,,,,,,58.736684083007276,58.74329420784488,59.23389683291316,59.23389683291316,59.30744366697036,59.30744366697036,59.30744366697036,59.92450320790522,right,1.1764398331288248,None,,,,,,,,daniel,001,2025-08-18_18h40.46.519,tilt_mocs,2024.2.4,None,2025-08-18 18h40.55.464832 -0400,
-5.25,-15.0,m2,negs,100,35,35,0,left,0.9700176671613008,None,,,,,,,,,0,35,35,70,59.93319695792161,,,,,,,,,,,,,,,,,,,,,,,,,,,,,,59.925481791840866,59.93319695792161,60.41683587501757,60.41683587501757,60.50003179186024,60.48822041694075,60.48822041694075,60.90788279194385,left,0.9700176671613008,None,,,,,,,,daniel,001,2025-08-18_18h40.46.519,tilt_mocs,2024.2.4,None,2025-08-18 18h40.55.464832 -0400,
4.166666666666666,15.0,p2,poss,100,36,36,0,right,0.9193919159006327,None,,,,,,,,,0,36,36,53,60.91656987485476,,,,,,,,,,,,,,,,,,,,,,,,,,,,,,60.90893062483519,60.91656987485476,61.410368541954085,61.410368541954085,61.48456120793708,61.48456120793708,61.48456120793708,61.84196041687392,right,0.9193919159006327,None,,,,,,,,daniel,001,2025-08-18_18h40.46.519,tilt_mocs,2024.2.4,None,2025-08-18 18h40.55.464832 -0400,
4.166666666666666,15.0,p2,poss,100,37,37,0,right,0.9412084580399096,None,,,,,,,,,0,37,37,59,61.85010758298449,,,,,,,,,,,,,,,,,,,,,,,,,,,,,,61.843278124928474,61.85010758298449,62.34309779200703,62.34309779200703,62.41762824985199,62.41762824985199,62.41762824985199,62.80249704187736,right,0.9412084580399096,None,,,,,,,,daniel,001,2025-08-18_18h40.46.519,tilt_mocs,2024.2.4,None,2025-08-18 18h40.55.464832 -0400,
-0.9444444444444444,0.0,PSE,noss,0,38,38,0,left,1.1709297911729664,None,,,,,,,,,0,38,38,135,62.81026791688055,,,,,,,,,,,,,,,,,,,,,,,,,,,,,,62.80345187499188,62.81026791688055,63.30096174986102,63.30096174986102,63.373385374899954,63.373385374899954,63.373385374899954,63.9857262079604,left,1.1709297911729664,None,,,,,,,,daniel,001,2025-08-18_18h40.46.519,tilt_mocs,2024.2.4,None,2025-08-18 18h40.55.464832 -0400,
-2.25,-15.0,p2,negs,100,39,39,0,right,1.060977749992162,None,,,,,,,,,0,39,39,111,63.992910666856915,,,,,,,,,,,,,,,,,,,,,,,,,,,,,,63.986704957904294,63.992910666856915,64.4833438328933,64.4833438328933,64.55777766695246,64.55777766695246,64.55777766695246,65.05787674989551,right,1.060977749992162,None,,,,,,,,daniel,001,2025-08-18_18h40.46.519,tilt_mocs,2024.2.4,None,2025-08-18 18h40.55.464832 -0400,
2.6666666666666665,15.0,PSE,poss,100,40,40,0,left,1.0162951671518385,None,,,,,,,,,0,40,40,32,65.06661479198374,,,,,,,,,,,,,,,,,,,,,,,,,,,,,,65.05889441701584,65.06661479198374,65.5593359998893,65.5593359998893,65.63465483300388,65.63465483300388,65.63465483300388,66.08661337499507,left,1.0162951671518385,None,,,,,,,,daniel,001,2025-08-18_18h40.46.519,tilt_mocs,2024.2.4,None,2025-08-18 18h40.55.464832 -0400,
-0.4444444444444443,0.0,p1,noss,0,41,41,0,left,1.11696399981156,None,,,,,,,,,0,41,41,141,66.09512766683474,,,,,,,,,,,,,,,,,,,,,,,,,,,,,,66.08825058303773,66.09512766683474,66.58434579195455,66.58434579195455,66.6573001248762,66.6573001248762,66.6573001248762,67.21911133290268,left,1.11696399981156,None,,,,,,,,daniel,001,2025-08-18_18h40.46.519,tilt_mocs,2024.2.4,None,2025-08-18 18h40.55.464832 -0400,
-0.4444444444444443,0.0,p1,noss,0,42,42,0,left,1.0094722909852862,None,,,,,,,,,0,42,42,139,67.22678495803848,,,,,,,,,,,,,,,,,,,,,,,,,,,,,,67.22011779202148,67.22678495803848,67.71776833292097,67.71776833292097,67.79111808305606,67.79111808305606,67.79111808305606,68.24169062497094,left,1.0094722909852862,None,,,,,,,,daniel,001,2025-08-18_18h40.46.519,tilt_mocs,2024.2.4,None,2025-08-18 18h40.55.464832 -0400,
-2.25,-15.0,p2,negs,100,43,43,0,right,0.9898206249345094,None,,,,,,,,,0,43,43,118,68.24990687496029,,,,,,,,,,,,,,,,,,,,,,,,,,,,,,68.24265104206279,68.24990687496029,68.74289966700599,68.74289966700599,68.81796629191376,68.81796629191376,68.81796629191376,69.24172333301976,right,0.9898206249345094,None,,,,,,,,daniel,001,2025-08-18_18h40.46.519,tilt_mocs,2024.2.4,None,2025-08-18 18h40.55.464832 -0400,
3.1666666666666665,15.0,p1,poss,100,44,44,0,right,1.011697124922648,None,,,,,,,,,0,44,44,44,69.249966125004,,,,,,,,,,,,,,,,,,,,,,,,,,,,,,69.24272491689771,69.249966125004,69.74323604186065,69.74323604186065,69.81772808288224,69.81772808288224,69.81772808288224,70.26967824995518,right,1.011697124922648,None,,,,,,,,daniel,001,2025-08-18_18h40.46.519,tilt_mocs,2024.2.4,None,2025-08-18 18h40.55.464832 -0400,
1.1666666666666663,15.0,m2,poss,100,45,45,0,right,0.9271648752037436,None,,,,,,,,,0,45,45,1,70.27762033301406,,,,,,,,,,,,,,,,,,,,,,,,,,,,,,70.27080620802008,70.27762033301406,70.76773787499405,70.76773787499405,70.84084312501363,70.84084312501363,70.84084312501363,71.20673195784912,right,0.9271648752037436,None,,,,,,,,daniel,001,2025-08-18_18h40.46.519,tilt_mocs,2024.2.4,None,2025-08-18 18h40.55.464832 -0400,
1.1666666666666663,15.0,m2,poss,100,46,46,0,left,1.1211615419015288,None,,,,,,,,,0,46,46,4,71.21757533284836,,,,,,,,,,,,,,,,,,,,,,,,,,,,,,71.20768208289519,71.21757533284836,71.70952595793642,71.70952595793642,71.78423999994993,71.78423999994993,71.78423999994993,72.34098445787095,left,1.1211615419015288,None,,,,,,,,daniel,001,2025-08-18_18h40.46.519,tilt_mocs,2024.2.4,None,2025-08-18 18h40.55.464832 -0400,
2.1666666666666665,15.0,m1,poss,100,47,47,0,right,1.0226103330496699,None,,,,,,,,,0,47,47,14,72.349837457994,,,,,,,,,,,,,,,,,,,,,,,,,,,,,,72.34196408302523,72.349837457994,72.84233345789835,72.84233345789835,72.91765145794488,72.91765145794488,72.91765145794488,73.37444266700186,right,1.0226103330496699,None,,,,,,,,daniel,001,2025-08-18_18h40.46.519,tilt_mocs,2024.2.4,None,2025-08-18 18h40.55.464832 -0400,
-2.25,-15.0,p2,negs,100,48,48,0,right,1.3927879999391735,None,,,,,,,,,0,48,48,119,73.38334216689691,,,,,,,,,,,,,,,,,,,,,,,,,,,,,,73.37553870794363,73.38334216689691,73.87607433297671,73.87607433297671,73.95099933305755,73.95099933305755,73.95099933305755,74.7866051250603,right,1.3927879999391735,None,,,,,,,,daniel,001,2025-08-18_18h40.46.519,tilt_mocs,2024.2.4,None,2025-08-18 18h40.55.464832 -0400,
-0.9444444444444444,0.0,PSE,noss,0,49,49,0,left,1.0829875839408487,None,,,,,,,,,0,49,49,137,74.7948280829005,,,,,,,,,,,,,,,,,,,,,,,,,,,,,,74.78767125005834,74.7948280829005,75.28425404196605,75.28425404196605,75.35624141688459,75.35624141688459,75.35624141688459,75.88590637501329,left,1.0829875839408487,None,,,,,,,,daniel,001,2025-08-18_18h40.46.519,tilt_mocs,2024.2.4,None,2025-08-18 18h40.55.464832 -0400,
1.1666666666666663,15.0,m2,poss,100,50,50,0,left,1.2052962919697165,None,,,,,,,,,0,50,50,10,75.89338070806116,,,,,,,,,,,,,,,,,,,,,,,,,,,,,,75.88684395793825,75.89338070806116,76.3833305418957,76.3833305418957,76.4571901250165,76.4571901250165,76.4571901250165,77.10232116701081,left,1.2052962919697165,None,,,,,,,,daniel,001,2025-08-18_18h40.46.519,tilt_mocs,2024.2.4,None,2025-08-18 18h40.55.464832 -0400,
4.166666666666666,15.0,p2,poss,100,51,51,0,right,1.1094369168858975,None,,,,,,,,,0,51,51,50,77.11000283295289,,,,,,,,,,,,,,,,,,,,,,,,,,,,,,77.1032643748913,77.11000283295289,77.60064124991186,77.60064124991186,77.67204291699454,77.67204291699454,77.67204291699454,78.22471566684544,right,1.1094369168858975,None,,,,,,,,daniel,001,2025-08-18_18h40.46.519,tilt_mocs,2024.2.4,None,2025-08-18 18h40.55.464832 -0400,
3.1666666666666665,15.0,p1,poss,100,52,52,0,right,1.020246332976967,None,,,,,,,,,0,52,52,36,78.23321133293211,,,,,,,,,,,,,,,,,,,,,,,,,,,,,,78.22577649983577,78.23321133293211,78.7257385828998,78.7257385828998,78.80093316687271,78.80093316687271,78.80093316687271,79.25824120803736,right,1.020246332976967,None,,,,,,,,daniel,001,2025-08-18_18h40.46.519,tilt_mocs,2024.2.4,None,2025-08-18 18h40.55.464832 -0400,
-2.444444444444444,0.0,m2,noss,0,53,53,0,left,1.004803790943697,None,,,,,,,,,0,53,53,121,79.2666920828633,,,,,,,,,,,,,,,,,,,,,,,,,,,,,,79.25931266695261,79.2666920828633,79.75814633304253,79.75814633304253,79.8342706670519,79.8342706670519,79.8342706670519,80.27479004184715,left,1.004803790943697,None,,,,,,,,daniel,001,2025-08-18_18h40.46.519,tilt_mocs,2024.2.4,None,2025-08-18 18h40.55.464832 -0400,
3.1666666666666665,15.0,p1,poss,100,54,54,0,right,0.9886495408136398,None,,,,,,,,,0,54,54,42,80.2830050829798,,,,,,,,,,,,,,,,,,,,,,,,,,,,,,80.27581166685559,80.2830050829798,80.77620262489654,80.77620262489654,80.85094312485307,80.85094312485307,80.85094312485307,81.27485474990681,right,0.9886495408136398,None,,,,,,,,daniel,001,2025-08-18_18h40.46.519,tilt_mocs,2024.2.4,None,2025-08-18 18h40.55.464832 -0400,
-3.25,-15.0,p1,negs,100,55,55,0,left,1.224478374933824,None,,,,,,,,,0,55,55,98,81.28347687493078,,,,,,,,,,,,,,,,,,,,,,,,,,,,,,81.27523699984886,81.28347687493078,81.77633658284321,81.77633658284321,81.85102583304979,81.85102583304979,81.85102583304979,82.5185222919099,left,1.224478374933824,None,,,,,,,,daniel,001,2025-08-18_18h40.46.519,tilt_mocs,2024.2.4,None,2025-08-18 18h40.55.464832 -0400,
-5.25,-15.0,m2,negs,100,56,56,0,left,0.9938727500848472,None,,,,,,,,,0,56,56,64,82.52605141699314,,,,,,,,,,,,,,,,,,,,,,,,,,,,,,82.51950066699646,82.52605141699314,83.00947841699235,83.00947841699235,83.08976424997672,83.0845638748724,83.0845638748724,83.52529212506488,left,0.9938727500848472,None,,,,,,,,daniel,001,2025-08-18_18h40.46.519,tilt_mocs,2024.2.4,None,2025-08-18 18h40.55.464832 -0400,
-3.75,-15.0,PSE,negs,100,57,57,0,left,1.079139041947201,None,,,,,,,,,0,57,57,92,83.533236999996,,,,,,,,,,,,,,,,,,,,,,,,,,,,,,83.52628487488255,83.533236999996,84.02645824989304,84.02645824989304,84.101219791919,84.101219791919,84.101219791919,84.61913937493227,left,1.079139041947201,None,,,,,,,,daniel,001,2025-08-18_18h40.46.519,tilt_mocs,2024.2.4,None,2025-08-18 18h40.55.464832 -0400,
4.166666666666666,15.0,p2,poss,100,58,58,0,right,0.9514077920466661,None,,,,,,,,,0,58,58,49,84.62680937489495,,,,,,,,,,,,,,,,,,,,,,,,,,,,,,84.62011220795102,84.62680937489495,85.11654204200022,85.11654204200022,85.19064929196611,85.19064929196611,85.19064929196611,85.58540333295241,right,0.9514077920466661,None,,,,,,,,daniel,001,2025-08-18_18h40.46.519,tilt_mocs,2024.2.4,None,2025-08-18 18h40.55.464832 -0400,
-0.4444444444444443,0.0,p1,noss,0,59,59,0,right,1.1981027908623219,None,,,,,,,,,0,59,59,142,85.59324654191732,,,,,,,,,,,,,,,,,,,,,,,,,,,,,,85.58660262497142,85.59324654191732,86.08428587485105,86.08428587485105,86.15761783299968,86.15761783299968,86.15761783299968,86.80234804190695,right,1.1981027908623219,None,,,,,,,,daniel,001,2025-08-18_18h40.46.519,tilt_mocs,2024.2.4,None,2025-08-18 18h40.55.464832 -0400,
-3.75,-15.0,PSE,negs,100,60,60,0,left,1.1710008340887725,None,,,,,,,,,0,60,60,84,86.81002762494609,,,,,,,,,,,,,,,,,,,,,,,,,,,,,,86.80328954197466,86.81002762494609,87.29988099983893,87.29988099983893,87.37423133291304,87.37423133291304,87.37423133291304,87.9857554580085,left,1.1710008340887725,None,,,,,,,,daniel,001,2025-08-18_18h40.46.519,tilt_mocs,2024.2.4,None,2025-08-18 18h40.55.464832 -0400,
-4.25,-15.0,m1,negs,100,61,61,0,left,1.3270527920685709,None,,,,,,,,,0,61,61,78,87.99321595788933,,,,,,,,,,,,,,,,,,,,,,,,,,,,,,87.98671762505546,87.99321595788933,88.48428366705775,88.48428366705775,88.55667966697365,88.55667966697365,88.55667966697365,89.32449170784093,left,1.3270527920685709,None,,,,,,,,daniel,001,2025-08-18_18h40.46.519,tilt_mocs,2024.2.4,None,2025-08-18 18h40.55.464832 -0400,
-0.5555555555555557,0.0,p2,noss,0,62,62,0,right,1.0570509168319404,None,,,,,,,,,0,62,62,146,89.3331345829647,,,,,,,,,,,,,,,,,,,,,,,,,,,,,,89.325468624942,89.3331345829647,89.82631733291782,89.82631733291782,89.90104804188013,89.90104804188013,89.90104804188013,90.39247175003402,right,1.0570509168319404,None,,,,,,,,daniel,001,2025-08-18_18h40.46.519,tilt_mocs,2024.2.4,None,2025-08-18 18h40.55.464832 -0400,
3.1666666666666665,15.0,p1,poss,100,63,63,0,right,1.0015525419730693,None,,,,,,,,,0,63,63,43,90.40064254193567,,,,,,,,,,,,,,,,,,,,,,,,,,,,,,90.39382308302447,90.40064254193567,90.89337204187177,90.89337204187177,90.96771545801312,90.96771545801312,90.96771545801312,91.40686737489887,right,1.0015525419730693,None,,,,,,,,daniel,001,2025-08-18_18h40.46.519,tilt_mocs,2024.2.4,None,2025-08-18 18h40.55.464832 -0400,
-0.9444444444444444,0.0,PSE,noss,0,64,64,0,left,2.403263333020732,None,,,,,,,,,0,64,64,133,91.41673916694708,,,,,,,,,,,,,,,,,,,,,,,,,,,,,,91.40737262484618,91.41673916694708,91.90629804204218,91.90629804204218,91.9831527499482,91.9831527499482,91.9831527499482,93.82494216691703,left,2.403263333020732,None,,,,,,,,daniel,001,2025-08-18_18h40.46.519,tilt_mocs,2024.2.4,None,2025-08-18 18h40.55.464832 -0400,
2.6666666666666665,15.0,PSE,poss,100,65,65,0,right,1.0132744170259684,None,,,,,,,,,0,65,65,34,93.83346741693094,,,,,,,,,,,,,,,,,,,,,,,,,,,,,,93.82617424987257,93.83346741693094,94.3274101249408,94.3274101249408,94.40097595797852,94.40097595797852,94.40097595797852,94.85273683303967,right,1.0132744170259684,None,,,,,,,,daniel,001,2025-08-18_18h40.46.519,tilt_mocs,2024.2.4,None,2025-08-18 18h40.55.464832 -0400,
1.1666666666666663,15.0,m2,poss,100,66,66,0,right,1.525836167158559,None,,,,,,,,,0,66,66,3,94.86094654188491,,,,,,,,,,,,,,,,,,,,,,,,,,,,,,94.85375520796515,94.86094654188491,95.34983774996363,95.34983774996363,95.42391250003129,95.42391250003129,95.42391250003129,96.39263391704299,right,1.525836167158559,None,,,,,,,,daniel,001,2025-08-18_18h40.46.519,tilt_mocs,2024.2.4,None,2025-08-18 18h40.55.464832 -0400,
-2.25,-15.0,p2,negs,100,67,67,0,right,1.0946817079093307,None,,,,,,,,,0,67,67,109,96.40063816704787,,,,,,,,,,,,,,,,,,,,,,,,,,,,,,96.39368349988945,96.40063816704787,96.89331308286637,96.89331308286637,96.96778770792298,96.96778770792298,96.96778770792298,97.50222041690722,right,1.0946817079093307,None,,,,,,,,daniel,001,2025-08-18_18h40.46.519,tilt_mocs,2024.2.4,None,2025-08-18 18h40.55.464832 -0400,
2.1666666666666665,15.0,m1,poss,100,68,68,0,right,1.047115665860474,None,,,,,,,,,0,68,68,20,97.50970695796423,,,,,,,,,,,,,,,,,,,,,,,,,,,,,,97.50319604203105,97.50970695796423,98.00092749996111,98.00092749996111,98.07265104190446,98.07265104190446,98.07265104190446,98.56945241685025,right,1.047115665860474,None,,,,,,,,daniel,001,2025-08-18_18h40.46.519,tilt_mocs,2024.2.4,None,2025-08-18 18h40.55.464832 -0400,
-3.25,-15.0,p1,negs,100,69,69,0,left,1.1606466670054942,None,,,,,,,,,0,69,69,96,98.57753766700625,,,,,,,,,,,,,,,,,,,,,,,,,,,,,,98.57070012483746,98.57753766700625,99.06652333284728,99.06652333284728,99.1406034999527,99.1406034999527,99.1406034999527,99.74011045787483,left,1.1606466670054942,None,,,,,,,,daniel,001,2025-08-18_18h40.46.519,tilt_mocs,2024.2.4,None,2025-08-18 18h40.55.464832 -0400,
2.6666666666666665,15.0,PSE,poss,100,70,70,0,right,1.0705635831691325,None,,,,,,,,,0,70,70,25,99.74973087501712,,,,,,,,,,,,,,,,,,,,,,,,,,,,,,99.74119137483649,99.74973087501712,100.23374187503941,100.23374187503941,100.31787679204717,100.30699787498452,100.30699787498452,100.82328545791097,right,1.0705635831691325,None,,,,,,,,daniel,001,2025-08-18_18h40.46.519,tilt_mocs,2024.2.4,None,2025-08-18 18h40.55.464832 -0400,
-3.25,-15.0,p1,negs,100,71,71,0,left,1.7193951250519603,None,,,,,,,,,0,71,71,100,100.83364908304065,,,,,,,,,,,,,,,,,,,,,,,,,,,,,,100.82426625001244,100.83364908304065,101.31650945800357,101.31650945800357,101.4009899168741,101.38881858298555,101.38881858298555,102.5592000419274,left,1.7193951250519603,None,,,,,,,,daniel,001,2025-08-18_18h40.46.519,tilt_mocs,2024.2.4,None,2025-08-18 18h40.55.464832 -0400,
2.1666666666666665,15.0,m1,poss,100,72,72,0,right,0.9796212909277529,None,,,,,,,,,0,72,72,12,102.56730541703291,,,,,,,,,,,,,,,,,,,,,,,,,,,,,,102.56034479197115,102.56730541703291,103.05962612503208,103.05962612503208,103.1343685828615,103.1343685828615,103.1343685828615,103.55299641704187,right,0.9796212909277529,None,,,,,,,,daniel,001,2025-08-18_18h40.46.519,tilt_mocs,2024.2.4,None,2025-08-18 18h40.55.464832 -0400,
-0.5555555555555557,0.0,p2,noss,0,73,73,0,left,1.6496392500121146,None,,,,,,,,,0,73,73,145,103.56137816701084,,,,,,,,,,,,,,,,,,,,,,,,,,,,,,103.55434149992652,103.56137816701084,104.0505130419042,104.0505130419042,104.1238942919299,104.1238942919299,104.1238942919299,105.21956399991177,left,1.6496392500121146,None,,,,,,,,daniel,001,2025-08-18_18h40.46.519,tilt_mocs,2024.2.4,None,2025-08-18 18h40.55.464832 -0400,
-1.4444444444444442,0.0,m1,noss,0,74,74,0,left,1.4714259589090943,None,,,,,,,,,0,74,74,127,105.22789170802571,,,,,,,,,,,,,,,,,,,,,,,,,,,,,,105.22081645787694,105.22789170802571,105.71682220790535,105.71682220790535,105.79046387504786,105.79046387504786,105.79046387504786,106.7027946668677,left,1.4714259589090943,None,,,,,,,,daniel,001,2025-08-18_18h40.46.519,tilt_mocs,2024.2.4,None,2025-08-18 18h40.55.464832 -0400,
-3.75,-15.0,PSE,negs,100,75,75,0,right,0.964193917112425,None,,,,,,,,,0,75,75,87,106.71063341689296,,,,,,,,,,,,,,,,,,,,,,,,,,,,,,106.70376091706567,106.71063341689296,107.20096375001594,107.20096375001594,107.2741429170128,107.2741429170128,107.2741429170128,107.68650041683577,right,0.964193917112425,None,,,,,,,,daniel,001,2025-08-18_18h40.46.519,tilt_mocs,2024.2.4,None,2025-08-18 18h40.55.464832 -0400,
-2.444444444444444,0.0,m2,noss,0,76,76,0,left,1.1433750418946147,None,,,,,,,,,0,76,76,125,107.69408070784993,,,,,,,,,,,,,,,,,,,,,,,,,,,,,,107.68749891687185,107.69408070784993,108.1832326669246,108.1832326669246,108.25686883297749,108.25686883297749,108.25686883297749,108.83989058295265,left,1.1433750418946147,None,,,,,,,,daniel,001,2025-08-18_18h40.46.519,tilt_mocs,2024.2.4,None,2025-08-18 18h40.55.464832 -0400,
-2.25,-15.0,p2,negs,100,77,77,0,right,0.9724173750728369,None,,,,,,,,,0,77,77,114,108.85003883298486,,,,,,,,,,,,,,,,,,,,,,,,,,,,,,108.84087466704659,108.85003883298486,109.33342575002462,109.33342575002462,109.41780733293854,109.40557004185393,109.40557004185393,109.8247254169546,right,0.9724173750728369,None,,,,,,,,daniel,001,2025-08-18_18h40.46.519,tilt_mocs,2024.2.4,None,2025-08-18 18h40.55.464832 -0400,
-5.25,-15.0,m2,negs,100,78,78,0,left,1.076785875018686,None,,,,,,,,,0,78,78,71,109.83316174987704,,,,,,,,,,,,,,,,,,,,,,,,,,,,,,109.82575404201634,109.83316174987704,110.32683437503874,110.32683437503874,110.40043812501244,110.40043812501244,110.40043812501244,110.91971720801666,left,1.076785875018686,None,,,,,,,,daniel,001,2025-08-18_18h40.46.519,tilt_mocs,2024.2.4,None,2025-08-18 18h40.55.464832 -0400,
-2.25,-15.0,p2,negs,100,79,79,0,right,0.9925515409559011,None,,,,,,,,,0,79,79,116,110.92725133290514,,,,,,,,,,,,,,,,,,,,,,,,,,,,,,110.92069754190743,110.92725133290514,111.4169714578893,111.4169714578893,111.48947104206309,111.48947104206309,111.48947104206309,111.92443029186688,right,0.9925515409559011,None,,,,,,,,daniel,001,2025-08-18_18h40.46.519,tilt_mocs,2024.2.4,None,2025-08-18 18h40.55.464832 -0400,
3.1666666666666665,15.0,p1,poss,100,80,80,0,right,1.0749629579950124,None,,,,,,,,,0,80,80,45,111.93309262488037,,,,,,,,,,,,,,,,,,,,,,,,,,,,,,111.92542449990287,111.93309262488037,112.42650854191743,112.42650854191743,112.50094679184258,112.50094679184258,112.50094679184258,113.01983033283614,right,1.0749629579950124,None,,,,,,,,daniel,001,2025-08-18_18h40.46.519,tilt_mocs,2024.2.4,None,2025-08-18 18h40.55.464832 -0400,
-3.25,-15.0,p1,negs,100,81,81,0,right,1.1416208751033992,None,,,,,,,,,0,81,81,101,113.02797654201277,,,,,,,,,,,,,,,,,,,,,,,,,,,,,,113.0212133328896,113.02797654201277,113.51656949985772,113.51656949985772,113.59035733295605,113.59035733295605,113.59035733295605,114.17440037499182,right,1.1416208751033992,None,,,,,,,,daniel,001,2025-08-18_18h40.46.519,tilt_mocs,2024.2.4,None,2025-08-18 18h40.55.464832 -0400,
-3.25,-15.0,p1,negs,100,82,82,0,right,1.0570539999753237,None,,,,,,,,,0,82,82,105,114.1831514169462,,,,,,,,,,,,,,,,,,,,,,,,,,,,,,114.17541962489486,114.1831514169462,114.67549799988046,114.67549799988046,114.75085037504323,114.75085037504323,114.75085037504323,115.25343624991365,right,1.0570539999753237,None,,,,,,,,daniel,001,2025-08-18_18h40.46.519,tilt_mocs,2024.2.4,None,2025-08-18 18h40.55.464832 -0400,
4.166666666666666,15.0,p2,poss,100,83,83,0,right,1.0655423749703914,None,,,,,,,,,0,83,83,56,115.26219816692173,,,,,,,,,,,,,,,,,,,,,,,,,,,,,,115.25509070791304,115.26219816692173,115.74997812486254,115.74997812486254,115.82186883292161,115.82186883292161,115.82186883292161,116.33625129191205,right,1.0655423749703914,None,,,,,,,,daniel,001,2025-08-18_18h40.46.519,tilt_mocs,2024.2.4,None,2025-08-18 18h40.55.464832 -0400,
1.1666666666666663,15.0,m2,poss,100,84,84,0,left,0.9824435829650611,None,,,,,,,,,0,84,84,8,116.34094062494114,,,,,,,,,,,,,,,,,,,,,,,,,,,,,,116.33676083292812,116.34094062494114,116.83413070789538,116.83413070789538,116.90705629205331,116.90705629205331,116.90705629205331,117.33615987491794,left,0.9824435829650611,None,,,,,,,,daniel,001,2025-08-18_18h40.46.519,tilt_mocs,2024.2.4,None,2025-08-18 18h40.55.464832 -0400,
-3.75,-15.0,PSE,negs,100,85,85,0,left,1.4594014999456704,None,,,,,,,,,0,85,85,89,117.34432995785028,,,,,,,,,,,,,,,,,,,,,,,,,,,,,,117.33718620799482,117.34432995785028,117.83423491683789,117.83423491683789,117.90684979199432,117.90684979199432,117.90684979199432,118.80678129196167,left,1.4594014999456704,None,,,,,,,,daniel,001,2025-08-18_18h40.46.519,tilt_mocs,2024.2.4,None,2025-08-18 18h40.55.464832 -0400,
-3.25,-15.0,p1,negs,100,86,86,0,left,1.1750660419929773,None,,,,,,,,,0,86,86,106,118.81661375006661,,,,,,,,,,,,,,,,,,,,,,,,,,,,,,118.80775837483816,118.81661375006661,119.29994258284569,119.29994258284569,119.38486612495035,119.3713269168511,119.3713269168511,120.00277604185976,left,1.1750660419929773,None,,,,,,,,daniel,001,2025-08-18_18h40.46.519,tilt_mocs,2024.2.4,None,2025-08-18 18h40.55.464832 -0400,
-0.9444444444444444,0.0,PSE,noss,0,87,87,0,left,1.127629625145346,None,,,,,,,,,0,87,87,136,120.01103433291428,,,,,,,,,,,,,,,,,,,,,,,,,,,,,,120.00425520795397,120.01103433291428,120.4997687919531,120.4997687919531,120.57378524984233,120.57378524984233,120.57378524984233,121.14090858283453,left,1.127629625145346,None,,,,,,,,daniel,001,2025-08-18_18h40.46.519,tilt_mocs,2024.2.4,None,2025-08-18 18h40.55.464832 -0400,
2.1666666666666665,15.0,m1,poss,100,88,88,0,right,0.9878176250495017,None,,,,,,,,,0,88,88,17,121.14968224987388,,,,,,,,,,,,,,,,,,,,,,,,,,,,,,121.14191916701384,121.14968224987388,121.64324825000949,121.64324825000949,121.71741191693582,121.71741191693582,121.71741191693582,122.14020608295687,right,0.9878176250495017,None,,,,,,,,daniel,001,2025-08-18_18h40.46.519,tilt_mocs,2024.2.4,None,2025-08-18 18h40.55.464832 -0400,
1.1666666666666663,15.0,m2,poss,100,89,89,0,right,1.7295722919516265,None,,,,,,,,,0,89,89,11,122.15001916699111,,,,,,,,,,,,,,,,,,,,,,,,,,,,,,122.14115208294243,122.15001916699111,122.63333654194139,122.63333654194139,122.7175838330295,122.70551558304578,122.70551558304578,123.88631787500344,right,1.7295722919516265,None,,,,,,,,daniel,001,2025-08-18_18h40.46.519,tilt_mocs,2024.2.4,None,2025-08-18 18h40.55.464832 -0400,
2.1666666666666665,15.0,m1,poss,100,90,90,0,right,0.9933500830084085,None,,,,,,,,,0,90,90,22,123.8944949998986,,,,,,,,,,,,,,,,,,,,,,,,,,,,,,123.88748783292249,123.8944949998986,124.38414733298123,124.38414733298123,124.4562138330657,124.4562138330657,124.4562138330657,124.89145341701806,right,0.9933500830084085,None,,,,,,,,daniel,001,2025-08-18_18h40.46.519,tilt_mocs,2024.2.4,None,2025-08-18 18h40.55.464832 -0400,
-4.25,-15.0,m1,negs,100,91,91,0,left,1.0757435830309987,None,,,,,,,,,0,91,91,80,124.89976629195735,,,,,,,,,,,,,,,,,,,,,,,,,,,,,,124.89243200002238,124.89976629195735,125.39283645804971,125.39283645804971,125.46779187489301,125.46779187489301,125.46779187489301,125.98594358284026,left,1.0757435830309987,None,,,,,,,,daniel,001,2025-08-18_18h40.46.519,tilt_mocs,2024.2.4,None,2025-08-18 18h40.55.464832 -0400,
-3.75,-15.0,PSE,negs,100,92,92,0,left,1.080890875076875,None,,,,,,,,,0,92,92,93,125.99368241685443,,,,,,,,,,,,,,,,,,,,,,,,,,,,,,125.98690370796248,125.99368241685443,126.48312679189257,126.48312679189257,126.55757162487134,126.55757162487134,126.55757162487134,127.08562220796011,left,1.080890875076875,None,,,,,,,,daniel,001,2025-08-18_18h40.46.519,tilt_mocs,2024.2.4,None,2025-08-18 18h40.55.464832 -0400,
-1.4444444444444442,0.0,m1,noss,0,93,93,0,left,1.4302752090152353,None,,,,,,,,,0,93,93,129,127.09328354196623,,,,,,,,,,,,,,,,,,,,,,,,,,,,,,127.08658274984919,127.09328354196623,127.58422158285975,127.58422158285975,127.65628104191273,127.65628104191273,127.65628104191273,128.53377329185605,left,1.4302752090152353,None,,,,,,,,daniel,001,2025-08-18_18h40.46.519,tilt_mocs,2024.2.4,None,2025-08-18 18h40.55.464832 -0400,
1.1666666666666663,15.0,m2,poss,100,94,94,0,right,1.2142765829339623,None,,,,,,,,,0,94,94,5,128.5385156669654,,,,,,,,,,,,,,,,,,,,,,,,,,,,,,128.5347700000275,128.5385156669654,129.02594824996777,129.02594824996777,129.1063607078977,129.10088170785457,129.10088170785457,129.75776233291253,right,1.2142765829339623,None,,,,,,,,daniel,001,2025-08-18_18h40.46.519,tilt_mocs,2024.2.4,None,2025-08-18 18h40.55.464832 -0400,
2.6666666666666665,15.0,PSE,poss,100,95,95,0,right,1.157355124829337,None,,,,,,,,,0,95,95,31,129.7664221250452,,,,,,,,,,,,,,,,,,,,,,,,,,,,,,129.75881766690873,129.7664221250452,130.25935249985196,130.25935249985196,130.3342668330297,130.3342668330297,130.3342668330297,130.93637224985287,right,1.157355124829337,None,,,,,,,,daniel,001,2025-08-18_18h40.46.519,tilt_mocs,2024.2.4,None,2025-08-18 18h40.55.464832 -0400,
-3.75,-15.0,PSE,negs,100,96,96,0,left,1.3194244999904186,None,,,,,,,,,0,96,96,94,130.9448662919458,,,,,,,,,,,,,,,,,,,,,,,,,,,,,,130.93800683296286,130.9448662919458,131.4336919579655,131.4336919579655,131.50699729193002,131.50699729193002,131.50699729193002,132.26880754204467,left,1.3194244999904186,None,,,,,,,,daniel,001,2025-08-18_18h40.46.519,tilt_mocs,2024.2.4,None,2025-08-18 18h40.55.464832 -0400,
2.1666666666666665,15.0,m1,poss,100,97,97,0,right,1.0807740830350667,None,,,,,,,,,0,97,97,18,132.27654266706668,,,,,,,,,,,,,,,,,,,,,,,,,,,,,,132.2698268329259,132.27654266706668,132.76751516689546,132.76751516689546,132.8395465000067,132.8395465000067,132.8395465000067,133.3593126249034,right,1.0807740830350667,None,,,,,,,,daniel,001,2025-08-18_18h40.46.519,tilt_mocs,2024.2.4,None,2025-08-18 18h40.55.464832 -0400,
-3.25,-15.0,p1,negs,100,98,98,0,left,1.6515509579330683,None,,,,,,,,,0,98,98,99,133.3676097500138,,,,,,,,,,,,,,,,,,,,,,,,,,,,,,133.36040037497878,133.3676097500138,133.859956207918,133.859956207918,133.9342450830154,133.9342450830154,133.9342450830154,135.02852845797315,left,1.6515509579330683,None,,,,,,,,daniel,001,2025-08-18_18h40.46.519,tilt_mocs,2024.2.4,None,2025-08-18 18h40.55.464832 -0400,
2.1666666666666665,15.0,m1,poss,100,99,99,0,right,0.9469970420468599,None,,,,,,,,,0,99,99,19,135.03403508290648,,,,,,,,,,,,,,,,,,,,,,,,,,,,,,135.0295065829996,135.03403508290648,135.5269793330226,135.5269793330226,135.60742279188707,135.60094779194333,135.60094779194333,135.98657279205509,right,0.9469970420468599,None,,,,,,,,daniel,001,2025-08-18_18h40.46.519,tilt_mocs,2024.2.4,None,2025-08-18 18h40.55.464832 -0400,
-0.4444444444444443,0.0,p1,noss,0,100,100,0,right,2.2319134171120822,None,,,,,,,,,0,100,100,138,135.99522195803002,,,,,,,,,,,,,,,,,,,,,,,,,,,,,,135.9880532498937,135.99522195803002,136.48343187500723,136.48343187500723,136.5570950419642,136.5570950419642,136.5570950419642,138.2361297919415,right,2.2319134171120822,None,,,,,,,,daniel,001,2025-08-18_18h40.46.519,tilt_mocs,2024.2.4,None,2025-08-18 18h40.55.464832 -0400,
1.1666666666666663,15.0,m2,poss,100,101,101,0,right,1.0263267499394715,None,,,,,,,,,0,101,101,0,138.24458399997093,,,,,,,,,,,,,,,,,,,,,,,,,,,,,,138.2378022079356,138.24458399997093,138.73313183290884,138.73313183290884,138.80770358303562,138.80770358303562,138.80770358303562,139.27449154201895,right,1.0263267499394715,None,,,,,,,,daniel,001,2025-08-18_18h40.46.519,tilt_mocs,2024.2.4,None,2025-08-18 18h40.55.464832 -0400,
-2.444444444444444,0.0,m2,noss,0,102,102,0,left,1.037401125067845,None,,,,,,,,,0,102,102,124,139.28297104197554,,,,,,,,,,,,,,,,,,,,,,,,,,,,,,139.27543012495153,139.28297104197554,139.7753182919696,139.7753182919696,139.8507809578441,139.8507809578441,139.8507809578441,140.32266075001098,left,1.037401125067845,None,,,,,,,,daniel,001,2025-08-18_18h40.46.519,tilt_mocs,2024.2.4,None,2025-08-18 18h40.55.464832 -0400,
-2.444444444444444,0.0,m2,noss,0,103,103,0,left,1.3551405831240118,None,,,,,,,,,0,103,103,120,140.33426558296196,,,,,,,,,,,,,,,,,,,,,,,,,,,,,,140.32344087492675,140.33426558296196,140.8256796670612,140.8256796670612,140.9008012500126,140.9008012500126,140.9008012500126,141.69180508283898,left,1.3551405831240118,None,,,,,,,,daniel,001,2025-08-18_18h40.46.519,tilt_mocs,2024.2.4,None,2025-08-18 18h40.55.464832 -0400,
-5.25,-15.0,m2,negs,100,104,104,0,left,1.1807578329462558,None,,,,,,,,,0,104,104,68,141.70006445795298,,,,,,,,,,,,,,,,,,,,,,,,,,,,,,141.6929315829184,141.70006445795298,142.19349045795389,142.19349045795389,142.26747212489136,142.2719221250154,142.2719221250154,142.88533170800656,left,1.1807578329462558,None,,,,,,,,daniel,001,2025-08-18_18h40.46.519,tilt_mocs,2024.2.4,None,2025-08-18 18h40.55.464832 -0400,
-0.5555555555555557,0.0,p2,noss,0,105,105,0,left,1.5442532920278609,None,,,,,,,,,0,105,105,147,142.8924312919844,,,,,,,,,,,,,,,,,,,,,,,,,,,,,,142.88612112496048,142.8924312919844,143.38306441693567,143.38306441693567,143.45656608301215,143.45656608301215,143.45656608301215,144.43953399988823,left,1.5442532920278609,None,,,,,,,,daniel,001,2025-08-18_18h40.46.519,tilt_mocs,2024.2.4,None,2025-08-18 18h40.55.464832 -0400,
-2.25,-15.0,p2,negs,100,106,106,0,right,1.0480534590315074,None,,,,,,,,,0,106,106,113,144.45043512503617,,,,,,,,,,,,,,,,,,,,,,,,,,,,,,144.44049125001766,144.45043512503617,144.93397108302452,144.93397108302452,145.01749304193072,145.00591316702776,145.00591316702776,145.5029572499916,right,1.0480534590315074,None,,,,,,,,daniel,001,2025-08-18_18h40.46.519,tilt_mocs,2024.2.4,None,2025-08-18 18h40.55.464832 -0400,
-1.4444444444444442,0.0,m1,noss,0,107,107,0,right,1.9774260420817882,None,,,,,,,,,0,107,107,128,145.51130825001746,,,,,,,,,,,,,,,,,,,,,,,,,,,,,,145.50457462505437,145.51130825001746,146.000751625048,146.000751625048,146.07325712498277,146.07325712498277,146.07325712498277,147.50203420803882,right,1.9774260420817882,None,,,,,,,,daniel,001,2025-08-18_18h40.46.519,tilt_mocs,2024.2.4,None,2025-08-18 18h40.55.464832 -0400,
1.1666666666666663,15.0,m2,poss,100,108,108,0,right,1.0500837077852339,None,,,,,,,,,0,108,108,9,147.50950937485322,,,,,,,,,,,,,,,,,,,,,,,,,,,,,,147.50301470793784,147.50950937485322,148.0000712920446,148.0000712920446,148.0737012499012,148.0737012499012,148.0737012499012,148.5696974999737,right,1.0500837077852339,None,,,,,,,,daniel,001,2025-08-18_18h40.46.519,tilt_mocs,2024.2.4,None,2025-08-18 18h40.55.464832 -0400,
-5.25,-15.0,m2,negs,100,109,109,0,left,1.0587158750277013,None,,,,,,,,,0,109,109,69,148.57761066686362,,,,,,,,,,,,,,,,,,,,,,,,,,,,,,148.57087554200552,148.57761066686362,149.0667082918808,149.0667082918808,149.14046170795336,149.14046170795336,149.14046170795336,149.64091691700742,left,1.0587158750277013,None,,,,,,,,daniel,001,2025-08-18_18h40.46.519,tilt_mocs,2024.2.4,None,2025-08-18 18h40.55.464832 -0400,
-4.25,-15.0,m1,negs,100,110,110,0,left,1.0403663329780102,None,,,,,,,,,0,110,110,77,149.64967754203826,,,,,,,,,,,,,,,,,,,,,,,,,,,,,,149.64191995793954,149.64967754203826,150.14288687496446,150.14288687496446,150.21743616694584,150.21743616694584,150.21743616694584,150.70221304195002,left,1.0403663329780102,None,,,,,,,,daniel,001,2025-08-18_18h40.46.519,tilt_mocs,2024.2.4,None,2025-08-18 18h40.55.464832 -0400,
2.6666666666666665,15.0,PSE,poss,100,111,111,0,right,1.0713966249022633,None,,,,,,,,,0,111,111,35,150.71005679201335,,,,,,,,,,,,,,,,,,,,,,,,,,,,,,150.70320137497038,150.71005679201335,151.2008879580535,151.2008879580535,151.27395670791157,151.27395670791157,151.27395670791157,151.7863560419064,right,1.0713966249022633,None,,,,,,,,daniel,001,2025-08-18_18h40.46.519,tilt_mocs,2024.2.4,None,2025-08-18 18h40.55.464832 -0400,
-2.25,-15.0,p2,negs,100,112,112,0,right,1.033740459010005,None,,,,,,,,,0,112,112,108,151.79463233286515,,,,,,,,,,,,,,,,,,,,,,,,,,,,,,151.78775574988686,151.79463233286515,152.28404429205693,152.28404429205693,152.35524970805272,152.35524970805272,152.35524970805272,152.8348876668606,right,1.033740459010005,None,,,,,,,,daniel,001,2025-08-18_18h40.46.519,tilt_mocs,2024.2.4,None,2025-08-18 18h40.55.464832 -0400,
-5.25,-15.0,m2,negs,100,113,113,0,left,0.9636856659781188,None,,,,,,,,,0,113,113,60,152.83960758289322,,,,,,,,,,,,,,,,,,,,,,,,,,,,,,152.83555545797572,152.83960758289322,153.333343291888,153.333343291888,153.40618987497874,153.40618987497874,153.40618987497874,153.80845020804554,left,0.9636856659781188,None,,,,,,,,daniel,001,2025-08-18_18h40.46.519,tilt_mocs,2024.2.4,None,2025-08-18 18h40.55.464832 -0400,
-3.75,-15.0,PSE,negs,100,114,114,0,left,1.124045915901661,None,,,,,,,,,0,114,114,88,153.81693629198708,,,,,,,,,,,,,,,,,,,,,,,,,,,,,,153.80974283302203,153.81693629198708,154.3172889999114,154.3172889999114,154.3842294998467,154.38868966698647,154.38868966698647,154.95274004200473,left,1.124045915901661,None,,,,,,,,daniel,001,2025-08-18_18h40.46.519,tilt_mocs,2024.2.4,None,2025-08-18 18h40.55.464832 -0400,
3.1666666666666665,15.0,p1,poss,100,115,115,0,right,1.0165560420136899,None,,,,,,,,,0,115,115,41,154.9601682079956,,,,,,,,,,,,,,,,,,,,,,,,,,,,,,154.95389437489212,154.9601682079956,155.45068612485193,155.45068612485193,155.52384250005707,155.52384250005707,155.52384250005707,155.9862959580496,right,1.0165560420136899,None,,,,,,,,daniel,001,2025-08-18_18h40.46.519,tilt_mocs,2024.2.4,None,2025-08-18 18h40.55.464832 -0400,
3.1666666666666665,15.0,p1,poss,100,116,116,0,right,1.0274070831947029,None,,,,,,,,,0,116,116,47,155.9948852919042,,,,,,,,,,,,,,,,,,,,,,,,,,,,,,155.98788483301178,155.9948852919042,156.48314583301544,156.48314583301544,156.5575190000236,156.5575190000236,156.5575190000236,157.0357742079068,right,1.0274070831947029,None,,,,,,,,daniel,001,2025-08-18_18h40.46.519,tilt_mocs,2024.2.4,None,2025-08-18 18h40.55.464832 -0400,
-2.25,-15.0,p2,negs,100,117,117,0,right,0.9600172908976674,None,,,,,,,,,0,117,117,115,157.04341420787387,,,,,,,,,,,,,,,,,,,,,,,,,,,,,,157.03675195784308,157.04341420787387,157.53420016705059,157.53420016705059,157.60728154191747,157.60728154191747,157.60728154191747,158.00793983298354,right,0.9600172908976674,None,,,,,,,,daniel,001,2025-08-18_18h40.46.519,tilt_mocs,2024.2.4,None,2025-08-18 18h40.55.464832 -0400,
2.6666666666666665,15.0,PSE,poss,100,118,118,0,right,0.9655727499630302,None,,,,,,,,,0,118,118,24,158.01636666688137,,,,,,,,,,,,,,,,,,,,,,,,,,,,,,158.0089571669232,158.01636666688137,158.50480004190467,158.50480004190467,158.5832404170651,158.5832404170651,158.5832404170651,158.9859994170256,right,0.9655727499630302,None,,,,,,,,daniel,001,2025-08-18_18h40.46.519,tilt_mocs,2024.2.4,None,2025-08-18 18h40.55.464832 -0400,
4.166666666666666,15.0,p2,poss,100,119,119,0,right,0.9866985420230776,None,,,,,,,,,0,119,119,48,158.9944240420591,,,,,,,,,,,,,,,,,,,,,,,,,,,,,,158.987061166903,158.9944240420591,159.48332599992864,159.48332599992864,159.55681612505578,159.55681612505578,159.55681612505578,159.98627529200166,right,0.9866985420230776,None,,,,,,,,daniel,001,2025-08-18_18h40.46.519,tilt_mocs,2024.2.4,None,2025-08-18 18h40.55.464832 -0400,
-4.25,-15.0,m1,negs,100,120,120,0,right,1.0013351668603718,None,,,,,,,,,0,120,120,74,159.99459416698664,,,,,,,,,,,,,,,,,,,,,,,,,,,,,,159.9878104168456,159.99459416698664,160.48421708284877,160.48421708284877,160.55707845790312,160.55707845790312,160.55707845790312,161.00297970790416,right,1.0013351668603718,None,,,,,,,,daniel,001,2025-08-18_18h40.46.519,tilt_mocs,2024.2.4,None,2025-08-18 18h40.55.464832 -0400,
-4.25,-15.0,m1,negs,100,121,121,0,left,1.181111834011972,None,,,,,,,,,0,121,121,79,161.0105967919808,,,,,,,,,,,,,,,,,,,,,,,,,,,,,,161.00397104187869,161.0105967919808,161.50077354186215,161.50077354186215,161.57262704195455,161.57262704195455,161.57262704195455,162.2023501249496,left,1.181111834011972,None,,,,,,,,daniel,001,2025-08-18_18h40.46.519,tilt_mocs,2024.2.4,None,2025-08-18 18h40.55.464832 -0400,
1.1666666666666663,15.0,m2,poss,100,122,122,0,right,1.0773300831206143,None,,,,,,,,,0,122,122,2,162.21013620798476,,,,,,,,,,,,,,,,,,,,,,,,,,,,,,162.20333716692403,162.21013620798476,162.70087170787156,162.70087170787156,162.7728217500262,162.7728217500262,162.7728217500262,163.28958450001664,right,1.0773300831206143,None,,,,,,,,daniel,001,2025-08-18_18h40.46.519,tilt_mocs,2024.2.4,None,2025-08-18 18h40.55.464832 -0400,
-2.25,-15.0,p2,negs,100,123,123,0,right,0.9536455001216382,None,,,,,,,,,0,123,123,117,163.3000750830397,,,,,,,,,,,,,,,,,,,,,,,,,,,,,,163.29057316691615,163.3000750830397,163.78419766691513,163.78419766691513,163.8675229169894,163.8560905000195,163.8560905000195,164.25850070803426,right,0.9536455001216382,None,,,,,,,,daniel,001,2025-08-18_18h40.46.519,tilt_mocs,2024.2.4,None,2025-08-18 18h40.55.464832 -0400,
-4.25,-15.0,m1,negs,100,124,124,0,right,1.188318458152935,None,,,,,,,,,0,124,124,75,164.2662676249165,,,,,,,,,,,,,,,,,,,,,,,,,,,,,,164.25951341702603,164.2662676249165,164.75906424992718,164.75906424992718,164.83417766704224,164.83417766704224,164.83417766704224,165.45625454187393,right,1.188318458152935,None,,,,,,,,daniel,001,2025-08-18_18h40.46.519,tilt_mocs,2024.2.4,None,2025-08-18 18h40.55.464832 -0400,
-0.5555555555555557,0.0,p2,noss,0,125,125,0,left,2.6024457500316203,None,,,,,,,,,0,125,125,144,165.467100125039,,,,,,,,,,,,,,,,,,,,,,,,,,,,,,165.4572428748943,165.467100125039,165.94986754190177,165.94986754190177,166.03409633296542,166.0232348330319,166.0232348330319,168.07400891697034,left,2.6024457500316203,None,,,,,,,,daniel,001,2025-08-18_18h40.46.519,tilt_mocs,2024.2.4,None,2025-08-18 18h40.55.464832 -0400,
4.166666666666666,15.0,p2,poss,100,126,126,0,right,0.9911599999759346,None,,,,,,,,,0,126,126,54,168.08302037487738,,,,,,,,,,,,,,,,,,,,,,,,,,,,,,168.0743867920246,168.08302037487738,168.57627650001086,168.57627650001086,168.65073633287102,168.65073633287102,168.65073633287102,169.08621716685593,right,0.9911599999759346,None,,,,,,,,daniel,001,2025-08-18_18h40.46.519,tilt_mocs,2024.2.4,None,2025-08-18 18h40.55.464832 -0400,
-3.25,-15.0,p1,negs,100,127,127,0,right,1.0747457081452012,None,,,,,,,,,0,127,127,107,169.09484645794146,,,,,,,,,,,,,,,,,,,,,,,,,,,,,,169.08794424985535,169.09484645794146,169.58353466703556,169.58353466703556,169.65732179186307,169.65732179186307,169.65732179186307,170.1744992500171,right,1.0747457081452012,None,,,,,,,,daniel,001,2025-08-18_18h40.46.519,tilt_mocs,2024.2.4,None,2025-08-18 18h40.55.464832 -0400,
-3.75,-15.0,PSE,negs,100,128,128,0,right,1.0486949998885393,None,,,,,,,,,0,128,128,91,170.18305695801973,,,,,,,,,,,,,,,,,,,,,,,,,,,,,,170.17546716704965,170.18305695801973,170.67600199999288,170.67600199999288,170.75061129196547,170.75061129196547,170.75061129196547,171.23576524993405,right,1.0486949998885393,None,,,,,,,,daniel,001,2025-08-18_18h40.46.519,tilt_mocs,2024.2.4,None,2025-08-18 18h40.55.464832 -0400,
-2.444444444444444,0.0,m2,noss,0,129,129,0,right,1.348113833926618,None,,,,,,,,,0,129,129,122,171.24335674988106,,,,,,,,,,,,,,,,,,,,,,,,,,,,,,171.23674587486312,171.24335674988106,171.73332350002602,171.73332350002602,171.80528029194102,171.80528029194102,171.80528029194102,172.60272204200737,right,1.348113833926618,None,,,,,,,,daniel,001,2025-08-18_18h40.46.519,tilt_mocs,2024.2.4,None,2025-08-18 18h40.55.464832 -0400,
4.166666666666666,15.0,p2,poss,100,130,130,0,right,0.9754210419487208,None,,,,,,,,,0,130,130,55,172.61093887500465,,,,,,,,,,,,,,,,,,,,,,,,,,,,,,172.60395825002342,172.61093887500465,173.09963883296587,173.09963883296587,173.17401279206388,173.17401279206388,173.17401279206388,173.59123070794158,right,0.9754210419487208,None,,,,,,,,daniel,001,2025-08-18_18h40.46.519,tilt_mocs,2024.2.4,None,2025-08-18 18h40.55.464832 -0400,
2.6666666666666665,15.0,PSE,poss,100,131,131,0,right,1.0040630411822349,None,,,,,,,,,0,131,131,26,173.5996828749776,,,,,,,,,,,,,,,,,,,,,,,,,,,,,,173.59221466700546,173.5996828749776,174.08298374991864,174.08298374991864,174.16738474997692,174.1564954170026,174.1564954170026,174.60637587495148,right,1.0040630411822349,None,,,,,,,,daniel,001,2025-08-18_18h40.46.519,tilt_mocs,2024.2.4,None,2025-08-18 18h40.55.464832 -0400,
-1.4444444444444442,0.0,m1,noss,0,132,132,0,left,1.6239440001081675,None,,,,,,,,,0,132,132,130,174.6163490419276,,,,,,,,,,,,,,,,,,,,,,,,,,,,,,174.60734987491742,174.6163490419276,175.1001308329869,175.1001308329869,175.1839306668844,175.1722842499148,175.1722842499148,176.2520496249199,left,1.6239440001081675,None,,,,,,,,daniel,001,2025-08-18_18h40.46.519,tilt_mocs,2024.2.4,None,2025-08-18 18h40.55.464832 -0400,
-3.25,-15.0,p1,negs,100,133,133,0,right,0.95144800003618,None,,,,,,,,,0,133,133,97,176.2572106248699,,,,,,,,,,,,,,,,,,,,,,,,,,,,,,176.25318379187956,176.2572106248699,176.75074699986726,176.75074699986726,176.8216644579079,176.8216644579079,176.8216644579079,177.21981983305886,right,0.95144800003618,None,,,,,,,,daniel,001,2025-08-18_18h40.46.519,tilt_mocs,2024.2.4,None,2025-08-18 18h40.55.464832 -0400,
-5.25,-15.0,m2,negs,100,134,134,0,right,1.2689595830161124,None,,,,,,,,,0,134,134,62,177.22851329203695,,,,,,,,,,,,,,,,,,,,,,,,,,,,,,177.2212252500467,177.22851329203695,177.7172561250627,177.7172561250627,177.78933837497607,177.78933837497607,177.78933837497607,178.50164462486282,right,1.2689595830161124,None,,,,,,,,daniel,001,2025-08-18_18h40.46.519,tilt_mocs,2024.2.4,None,2025-08-18 18h40.55.464832 -0400,
-4.25,-15.0,m1,negs,100,135,135,0,right,0.9373904999811202,None,,,,,,,,,0,135,135,76,178.50614320789464,,,,,,,,,,,,,,,,,,,,,,,,,,,,,,178.50201858300716,178.50614320789464,178.9919256248977,178.9919256248977,179.0736199999228,179.06735608284362,179.06735608284362,179.4523649169132,right,0.9373904999811202,None,,,,,,,,daniel,001,2025-08-18_18h40.46.519,tilt_mocs,2024.2.4,None,2025-08-18 18h40.55.464832 -0400,
-5.25,-15.0,m2,negs,100,136,136,0,left,1.0600801659747958,None,,,,,,,,,0,136,136,67,179.4601121249143,,,,,,,,,,,,,,,,,,,,,,,,,,,,,,179.45355495787226,179.4601121249143,179.94964195787907,179.94964195787907,180.02381937485188,180.02381937485188,180.02381937485188,180.5229587079957,left,1.0600801659747958,None,,,,,,,,daniel,001,2025-08-18_18h40.46.519,tilt_mocs,2024.2.4,None,2025-08-18 18h40.55.464832 -0400,
-3.75,-15.0,PSE,negs,100,137,137,0,right,0.9394474169239402,None,,,,,,,,,0,137,137,95,180.5336582500022,,,,,,,,,,,,,,,,,,,,,,,,,,,,,,180.5238614580594,180.5336582500022,181.01656999997795,181.01656999997795,181.10079262498766,181.0892076669261,181.0892076669261,181.47521654190496,right,0.9394474169239402,None,,,,,,,,daniel,001,2025-08-18_18h40.46.519,tilt_mocs,2024.2.4,None,2025-08-18 18h40.55.464832 -0400,
-4.25,-15.0,m1,negs,100,138,138,0,right,0.9461736669763923,None,,,,,,,,,0,138,138,83,181.48340479191393,,,,,,,,,,,,,,,,,,,,,,,,,,,,,,181.47631833306514,181.48340479191393,181.97675474989228,181.97675474989228,182.05078933294863,182.05078933294863,182.05078933294863,182.43618358299136,right,0.9461736669763923,None,,,,,,,,daniel,001,2025-08-18_18h40.46.519,tilt_mocs,2024.2.4,None,2025-08-18 18h40.55.464832 -0400,
2.1666666666666665,15.0,m1,poss,100,139,139,0,right,1.0021126659121364,None,,,,,,,,,0,139,139,15,182.4447106248699,,,,,,,,,,,,,,,,,,,,,,,,,,,,,,182.43750283285044,182.4447106248699,182.9329562499188,182.9329562499188,183.00597579195164,183.00597579195164,183.00597579195164,183.45302962488495,right,1.0021126659121364,None,,,,,,,,daniel,001,2025-08-18_18h40.46.519,tilt_mocs,2024.2.4,None,2025-08-18 18h40.55.464832 -0400,
-3.75,-15.0,PSE,negs,100,140,140,0,left,1.1689596250653267,None,,,,,,,,,0,140,140,90,183.46147291688249,,,,,,,,,,,,,,,,,,,,,,,,,,,,,,183.45464341691695,183.46147291688249,183.950723499991,183.950723499991,184.0227071668487,184.0227071668487,184.0227071668487,184.63554516690783,left,1.1689596250653267,None,,,,,,,,daniel,001,2025-08-18_18h40.46.519,tilt_mocs,2024.2.4,None,2025-08-18 18h40.55.464832 -0400,
2.1666666666666665,15.0,m1,poss,100,141,141,0,right,0.9259487909730524,None,,,,,,,,,0,141,141,23,184.64338758285157,,,,,,,,,,,,,,,,,,,,,,,,,,,,,,184.63651474984363,184.64338758285157,185.1340055000037,185.1340055000037,185.20710349990986,185.20710349990986,185.20710349990986,185.57515791687183,right,0.9259487909730524,None,,,,,,,,daniel,001,2025-08-18_18h40.46.519,tilt_mocs,2024.2.4,None,2025-08-18 18h40.55.464832 -0400,
-4.25,-15.0,m1,negs,100,142,142,0,left,1.443548458861187,None,,,,,,,,,0,142,142,82,185.5830732078757,,,,,,,,,,,,,,,,,,,,,,,,,,,,,,185.57620675000362,185.5830732078757,186.0766316668596,186.0766316668596,186.15069029200822,186.15069029200822,186.15069029200822,187.03563104197383,left,1.443548458861187,None,,,,,,,,daniel,001,2025-08-18_18h40.46.519,tilt_mocs,2024.2.4,None,2025-08-18 18h40.55.464832 -0400,
4.166666666666666,15.0,p2,poss,100,143,143,0,right,0.9005050831474364,None,,,,,,,,,0,143,143,57,187.04340349999256,,,,,,,,,,,,,,,,,,,,,,,,,,,,,,187.03663683286868,187.04340349999256,187.53402529191226,187.53402529191226,187.60711079183966,187.60711079183966,187.60711079183966,187.95272108283825,right,0.9005050831474364,None,,,,,,,,daniel,001,2025-08-18_18h40.46.519,tilt_mocs,2024.2.4,None,2025-08-18 18h40.55.464832 -0400,
2.6666666666666665,15.0,PSE,poss,100,144,144,0,right,1.1085189171135426,None,,,,,,,,,0,144,144,28,187.96098537486978,,,,,,,,,,,,,,,,,,,,,,,,,,,,,,187.95412925002165,187.96098537486978,188.44961283286102,188.44961283286102,188.52283395803533,188.52283395803533,188.52283395803533,189.07447958295234,right,1.1085189171135426,None,,,,,,,,daniel,001,2025-08-18_18h40.46.519,tilt_mocs,2024.2.4,None,2025-08-18 18h40.55.464832 -0400,
4.166666666666666,15.0,p2,poss,100,145,145,0,right,0.9548892918974161,None,,,,,,,,,0,145,145,58,189.08293891698122,,,,,,,,,,,,,,,,,,,,,,,,,,,,,,189.07544362498447,189.08293891698122,189.56627612491138,189.56627612491138,189.6506968329195,189.6398395828437,189.6398395828437,190.03973041684367,right,0.9548892918974161,None,,,,,,,,daniel,001,2025-08-18_18h40.46.519,tilt_mocs,2024.2.4,None,2025-08-18 18h40.55.464832 -0400,
3.1666666666666665,15.0,p1,poss,100,146,146,0,right,1.0209054588340223,None,,,,,,,,,0,146,146,37,190.0501277919393,,,,,,,,,,,,,,,,,,,,,,,,,,,,,,190.0407169579994,190.0501277919393,190.53325233305804,190.53325233305804,190.61739462497644,190.60606787493452,190.60606787493452,191.08482395787723,right,1.0209054588340223,None,,,,,,,,daniel,001,2025-08-18_18h40.46.519,tilt_mocs,2024.2.4,None,2025-08-18 18h40.55.464832 -0400,
-0.4444444444444443,0.0,p1,noss,0,147,147,0,right,1.057132582878694,None,,,,,,,,,0,147,147,140,191.09019050002098,,,,,,,,,,,,,,,,,,,,,,,,,,,,,,191.08582712500356,191.09019050002098,191.57597750006244,191.57597750006244,191.65644333302043,191.65069699985906,191.65069699985906,192.15288687497377,right,1.057132582878694,None,,,,,,,,daniel,001,2025-08-18_18h40.46.519,tilt_mocs,2024.2.4,None,2025-08-18 18h40.55.464832 -0400,
2.6666666666666665,15.0,PSE,poss,100,148,148,0,right,1.0884681669995189,None,,,,,,,,,0,148,148,30,192.16079524997622,,,,,,,,,,,,,,,,,,,,,,,,,,,,,,192.1543290419504,192.16079524997622,192.6496776668355,192.6496776668355,192.72214133292437,192.72214133292437,192.72214133292437,193.25305945798755,right,1.0884681669995189,None,,,,,,,,daniel,001,2025-08-18_18h40.46.519,tilt_mocs,2024.2.4,None,2025-08-18 18h40.55.464832 -0400,
-2.25,-15.0,p2,negs,100,149,149,0,right,1.0139702088199556,None,,,,,,,,,0,149,149,110,193.26115837483667,,,,,,,,,,,,,,,,,,,,,,,,,,,,,,193.2541127919685,193.26115837483667,193.7510290830396,193.7510290830396,193.8228700000327,193.8228700000327,193.8228700000327,194.2862842080649,right,1.0139702088199556,None,,,,,,,,daniel,001,2025-08-18_18h40.46.519,tilt_mocs,2024.2.4,None,2025-08-18 18h40.55.464832 -0400,
,,,,,,,,,,,,,,,,,,,,,,,,,,,,,,,,,,,,,,,,,,,,,,,,,,,,,,,,,,,,,,,,194.28651549993083,194.29616262484342,194.29616262484342,209.65265995799564,space,15.35169258294627,None,daniel,001,2025-08-18_18h40.46.519,tilt_mocs,2024.2.4,None,2025-08-18 18h40.55.464832 -0400,
