center,surround,correct,thisN,thisTrialN,thisRepN,key_resp_3.keys,key_resp_3.corr,key_resp_3.rt,key_resp_3.duration,opacity,key_resp_4.keys,key_resp_4.corr,key_resp_4.rt,key_resp_4.duration,practice_no_time.thisRepN,practice_no_time.thisTrialN,practice_no_time.thisN,practice_no_time.thisIndex,practice_timed.thisRepN,practice_timed.thisTrialN,practice_timed.thisN,practice_timed.thisIndex,blocks.thisRepN,blocks.thisTrialN,blocks.thisN,blocks.thisIndex,thisRow.t,notes,instr.started,text_5.started,key_resp_2.started,instr.stopped,key_resp_2.keys,key_resp_2.rt,key_resp_2.duration,instr2.started,text_6.started,key_resp_6.started,instr2.stopped,key_resp_6.keys,key_resp_6.rt,key_resp_6.duration,practice_trial.started,key_resp_3.started,surround_practice.started,center_practice.started,practice_trial.stopped,practice_no_time.key_resp_3.keys,practice_no_time.key_resp_3.corr,practice_no_time.key_resp_3.rt,practice_no_time.key_resp_3.duration,practice_feedback.started,text_7.started,practice_feedback.stopped,text_7.stopped,instr3.started,text_8.started,key_resp_5.started,instr3.stopped,key_resp_5.keys,key_resp_5.rt,key_resp_5.duration,practice_trial_timed.started,key_resp_4.started,surround_practice_2.started,center_practice_2.started,surround_practice_2.stopped,center_practice_2.stopped,text_12.started,practice_trial_timed.stopped,practice_timed.key_resp_4.keys,practice_timed.key_resp_4.corr,practice_timed.key_resp_4.rt,practice_timed.key_resp_4.duration,start_instr.started,text_13.started,key_resp_8.started,start_instr.stopped,key_resp_8.keys,key_resp_8.rt,key_resp_8.duration,trials.label,trials.nReps,trials.startVal,trials.maxVal,trials.minVal,trials.stepSizes,trials.stepType,trials.nUp,trials.nDown,trials.nReversals,trials.thisIndex,trials.thisRepN,trials.thisN,trials.direction,trials.stepSize,trials.intensity,center_angle,surround_angle,trial.started,resp.started,surround_grating.started,center_grating.started,surround_grating.stopped,center_grating.stopped,text_3.started,trial.stopped,trials.response,break_2.started,text_14.started,key_resp_9.started,break_2.stopped,blocks.key_resp_9.keys,blocks.key_resp_9.rt,blocks.key_resp_9.duration,end.started,text_4.started,key_resp.started,end.stopped,key_resp.keys,key_resp.rt,key_resp.duration,sub,ses,date,expName,psychopyVersion,frameRate,expStart,
,,,,,,,,,,,,,,,,,,,,,,,,,,,,,0.0135074169957079,0.02034579199971631,0.02034579199971631,31.808642999996664,space,31.73484450000251,None,,,,,,,,,,,,,,,,,,,,,,,,,,,,,,,,,,,,,,,,,,,,,,,,,,,,,,,,,,,,,,,,,,,,,,,,,,,,,,,,,,,,,,,,eli,0,2025-08-29_11h25.26.790,tilt_staircase,2024.2.4,None,2025-08-29 11h25.34.337792 -0400,
,,,,,,,,,,,,,,,,,,,,,,,,,,,,,,,,,,,,31.808726249997562,31.828417166994768,31.828417166994768,39.46497354199528,space,7.631326792004984,None,,,,,,,,,,,,,,,,,,,,,,,,,,,,,,,,,,,,,,,,,,,,,,,,,,,,,,,,,,,,,,,,,,,,,,,,,,,,,,,,,eli,0,2025-08-29_11h25.26.790,tilt_staircase,2024.2.4,None,2025-08-29 11h25.34.337792 -0400,
30,0,right,0,0,0,right,1,1.3829524999964633,None,,,,,,0,0,0,0,,,,,,,,,39.493346916999144,,,,,,,,,,,,,,,,39.48564883299696,39.493346916999144,40.03714974999457,40.03714974999457,40.88400187499792,right,1,1.3829524999964633,None,40.890152707994275,40.98164687499957,42.39141441699758,,,,,,,,,,,,,,,,,,,,,,,,,,,,,,,,,,,,,,,,,,,,,,,,,,,,,,,,,,,,,,,,,,,,,eli,0,2025-08-29_11h25.26.790,tilt_staircase,2024.2.4,None,2025-08-29 11h25.34.337792 -0400,
-30,0,left,1,1,0,left,1,1.0770487090048846,None,,,,,,0,1,1,1,,,,,,,,,42.398088292000466,,,,,,,,,,,,,,,,42.39280016699922,42.398088292000466,42.88290870799392,42.88290870799392,43.47785362499417,left,1,1.0770487090048846,None,43.47798137499922,43.48746645799838,44.97591824999836,44.982101999994484,,,,,,,,,,,,,,,,,,,,,,,,,,,,,,,,,,,,,,,,,,,,,,,,,,,,,,,,,,,,,,,,,,,,eli,0,2025-08-29_11h25.26.790,tilt_staircase,2024.2.4,None,2025-08-29 11h25.34.337792 -0400,
30,60,right,2,2,0,right,1,1.2188320830027806,None,,,,,,0,2,2,2,,,,,,,,,44.982101999994484,,,,,,,,,,,,,,,,44.97701658299775,44.982101999994484,45.47347974999866,45.47347974999866,46.21069833299407,right,1,1.2188320830027806,None,46.210893582996505,46.219686874996114,47.70913954199932,47.71563808299834,,,,,,,,,,,,,,,,,,,,,,,,,,,,,,,,,,,,,,,,,,,,,,,,,,,,,,,,,,,,,,,,,,,,eli,0,2025-08-29_11h25.26.790,tilt_staircase,2024.2.4,None,2025-08-29 11h25.34.337792 -0400,
-30,-60,left,3,3,0,left,1,0.8670106249992386,None,,,,,,0,3,3,3,,,,,,,,,47.71563808299834,,,,,,,,,,,,,,,,47.71040662499581,47.71563808299834,48.20687341699522,48.20687341699522,48.593978457996855,left,1,0.8670106249992386,None,48.59416520800005,48.601885749994835,50.09256249999453,50.10094483300054,,,,,,,,,,,,,,,,,,,,,,,,,,,,,,,,,,,,,,,,,,,,,,,,,,,,,,,,,,,,,,,,,,,,eli,0,2025-08-29_11h25.26.790,tilt_staircase,2024.2.4,None,2025-08-29 11h25.34.337792 -0400,
,,,,,,,,,,,,,,,,,,,,,,,,,,,,,,,,,,,,,,,,,,,,,,,,,,,,,,,,50.0927234999981,50.10094483300054,50.10094483300054,74.92681162499503,space,24.820510292003746,None,,,,,,,,,,,,,,,,,,,,,,,,,,,,,,,,,,,,,,,,,,,,,,,,,,,,,,,,,,,,,eli,0,2025-08-29_11h25.26.790,tilt_staircase,2024.2.4,None,2025-08-29 11h25.34.337792 -0400,
-30,-60,left,0,0,0,,,,,100,left,1,4.361401916001341,None,,,,,0,0,0,0,,,,,74.94419970799936,,,,,,,,,,,,,,,,,,,,,,,,,79.31095162499696,79.31838604199584,80.80921266699443,80.81493066699477,,,,,,,,74.93612383299478,74.94419970799936,75.42823124999995,75.42823124999995,75.49763574999815,75.49763574999815,75.49763574999815,79.31082212500041,left,1,4.361401916001341,None,,,,,,,,,,,,,,,,,,,,,,,,,,,,,,,,,,,,,,,,,,,,,,,,,eli,0,2025-08-29_11h25.26.790,tilt_staircase,2024.2.4,None,2025-08-29 11h25.34.337792 -0400,
-30,0,left,1,1,0,,,,,100,left,1,1.0557078330020886,None,,,,,0,1,1,1,,,,,80.81493066699477,,,,,,,,,,,,,,,,,,,,,,,,,81.87671437500103,81.88375254199491,83.3758322079957,83.38151537499652,,,,,,,,80.809820167,80.81493066699477,81.30667916699895,81.30667916699895,81.38112670799455,81.38112670799455,81.38112670799455,81.87660608299484,left,1,1.0557078330020886,None,,,,,,,,,,,,,,,,,,,,,,,,,,,,,,,,,,,,,,,,,,,,,,,,,eli,0,2025-08-29_11h25.26.790,tilt_staircase,2024.2.4,None,2025-08-29 11h25.34.337792 -0400,
30,60,right,2,2,0,,,,,100,right,1,0.7948368750003283,None,,,,,0,2,2,2,,,,,83.38151537499652,,,,,,,,,,,,,,,,,,,,,,,,,84.18249691699748,84.19004887499614,85.67579799999658,85.68153129200073,,,,,,,,83.37641900000017,83.38151537499652,83.87330729200039,83.87330729200039,83.94749724999565,83.94749724999565,83.94749724999565,84.18239220800024,right,1,0.7948368750003283,None,,,,,,,,,,,,,,,,,,,,,,,,,,,,,,,,,,,,,,,,,,,,,,,,,eli,0,2025-08-29_11h25.26.790,tilt_staircase,2024.2.4,None,2025-08-29 11h25.34.337792 -0400,
30,0,right,3,3,0,,,,,100,right,1,0.9549484579983982,None,,,,,0,3,3,3,,,,,85.68153129200073,,,,,,,,,,,,,,,,,,,,,,,,,86.64332041699527,86.6504370420007,88.14221041699784,88.14812629199878,,,,,,,,85.67638674999762,85.68153129200073,86.18375949999609,86.18375949999609,86.25813424999797,86.25813424999797,86.25813424999797,86.64319795800111,right,1,0.9549484579983982,None,,,,,,,,,,,,,,,,,,,,,,,,,,,,,,,,,,,,,,,,,,,,,,,,,eli,0,2025-08-29_11h25.26.790,tilt_staircase,2024.2.4,None,2025-08-29 11h25.34.337792 -0400,
-30,69,left,4,4,0,,,,,0,left,1,0.9076623330038274,None,,,,,0,4,4,4,,,,,88.14812629199878,,,,,,,,,,,,,,,,,,,,,,,,,89.06022066700098,89.06769583300047,90.55865366699436,90.56399633299588,,,,,,,,88.14283091700054,88.14812629199878,88.63997783299419,88.63997783299419,88.7140910829985,88.7140910829985,88.7140910829985,89.06007133299863,left,1,0.9076623330038274,None,,,,,,,,,,,,,,,,,,,,,,,,,,,,,,,,,,,,,,,,,,,,,,,,,eli,0,2025-08-29_11h25.26.790,tilt_staircase,2024.2.4,None,2025-08-29 11h25.34.337792 -0400,
30,69,right,5,5,0,,,,,0,right,1,0.8064976669993484,None,,,,,0,5,5,5,,,,,90.56399633299588,,,,,,,,,,,,,,,,,,,,,,,,,91.37713974999497,91.38414949999424,92.87575691699749,92.88396374999866,,,,,,,,90.55922124999779,90.56399633299588,91.05682866699499,91.05682866699499,91.13081512499775,91.13081512499775,91.13081512499775,91.37697329199727,right,1,0.8064976669993484,None,,,,,,,,,,,,,,,,,,,,,,,,,,,,,,,,,,,,,,,,,,,,,,,,,eli,0,2025-08-29_11h25.26.790,tilt_staircase,2024.2.4,None,2025-08-29 11h25.34.337792 -0400,
,,,,,,,,,,,,,,,,,,,,,,,,,,,,,,,,,,,,,,,,,,,,,,,,,,,,,,,,,,,,,,,,,,,,,,,,,,,92.8759391249987,92.88396374999866,92.88396374999866,152.8594975829983,space,59.965946541997255,None,,,,,,,,,,,,,,,,,,,,,,,,,,,,,,,,,,,,,,,,,,eli,0,2025-08-29_11h25.26.790,tilt_staircase,2024.2.4,None,2025-08-29 11h25.34.337792 -0400,
,,,0,0,0,,,,,,,,,,,,,,,,,,0,0,0,0,152.98050916699867,,,,,,,,,,,,,,,,,,,,,,,,,,,,,,,,,,,,,,,,,,,,,,,,,,,,,,,negc_poss,30,-15,15,-15,"[5, 2, 1, 0.5]",lin,1,1,8,2,1,0,start,5,-15,-15,30,152.97528820799926,152.98050916699867,153.3598926669947,153.3598926669947,153.43150487499952,153.43150487499952,153.43150487499952,153.91555495799548,1,,,,,,,,,,,,,,,eli,0,2025-08-29_11h25.26.790,tilt_staircase,2024.2.4,None,2025-08-29 11h25.34.337792 -0400,
,,,0,0,0,,,,,,,,,,,,,,,,,,0,0,0,0,153.9238190420001,,,,,,,,,,,,,,,,,,,,,,,,,,,,,,,,,,,,,,,,,,,,,,,,,,,,,,,posc_negs,30,15,15,-15,"[5, 2, 1, 0.5]",lin,1,1,8,1,1,1,start,5,15,15,-30,153.91662874999747,153.9238190420001,154.40734008299478,154.40734008299478,154.48012591699808,154.48012591699808,154.49129916699894,154.90972095799953,0,,,,,,,,,,,,,,,eli,0,2025-08-29_11h25.26.790,tilt_staircase,2024.2.4,None,2025-08-29 11h25.34.337792 -0400,
,,,0,0,0,,,,,,,,,,,,,,,,,,0,0,0,0,154.9176045419954,,,,,,,,,,,,,,,,,,,,,,,,,,,,,,,,,,,,,,,,,,,,,,,,,,,,,,,posc_poss,30,15,15,-15,"[5, 2, 1, 0.5]",lin,1,1,8,3,1,2,start,5,15,15,30,154.91092974999628,154.9176045419954,155.4064737499939,155.4064737499939,155.48128495799756,155.48128495799756,155.48128495799756,156.1602765419957,0,,,,,,,,,,,,,,,eli,0,2025-08-29_11h25.26.790,tilt_staircase,2024.2.4,None,2025-08-29 11h25.34.337792 -0400,
,,,0,0,0,,,,,,,,,,,,,,,,,,0,0,0,0,156.1683827079978,,,,,,,,,,,,,,,,,,,,,,,,,,,,,,,,,,,,,,,,,,,,,,,,,,,,,,,posc_noss,30,15,15,-15,"[5, 2, 1, 0.5]",lin,1,1,8,5,1,3,start,5,15,15,,156.161363332998,156.1683827079978,156.6565206249943,156.6565206249943,156.73037170799944,156.73037170799944,156.73037170799944,157.22674316699704,1,,,,,,,,,,,,,,,eli,0,2025-08-29_11h25.26.790,tilt_staircase,2024.2.4,None,2025-08-29 11h25.34.337792 -0400,
,,,0,0,0,,,,,,,,,,,,,,,,,,0,0,0,0,157.23485891699966,,,,,,,,,,,,,,,,,,,,,,,,,,,,,,,,,,,,,,,,,,,,,,,,,,,,,,,negc_noss,30,-15,15,-15,"[5, 2, 1, 0.5]",lin,1,1,8,4,1,4,start,5,-15,-15,,157.22804029200051,157.23485891699966,157.72316354199575,157.72316354199575,157.79718187500112,157.79718187500112,157.79718187500112,158.1316942919948,0,,,,,,,,,,,,,,,eli,0,2025-08-29_11h25.26.790,tilt_staircase,2024.2.4,None,2025-08-29 11h25.34.337792 -0400,
,,,0,0,0,,,,,,,,,,,,,,,,,,0,0,0,0,158.13974054199934,,,,,,,,,,,,,,,,,,,,,,,,,,,,,,,,,,,,,,,,,,,,,,,,,,,,,,,negc_negs,30,-15,15,-15,"[5, 2, 1, 0.5]",lin,1,1,8,0,1,5,start,5,-15,-15,-30,158.13268679199973,158.13974054199934,158.6337309169976,158.6337309169976,158.70791541699873,158.70791541699873,158.70791541699873,159.28610095800104,0,,,,,,,,,,,,,,,eli,0,2025-08-29_11h25.26.790,tilt_staircase,2024.2.4,None,2025-08-29 11h25.34.337792 -0400,
,,,0,0,0,,,,,,,,,,,,,,,,,,0,0,0,0,159.30762654199498,,,,,,,,,,,,,,,,,,,,,,,,,,,,,,,,,,,,,,,,,,,,,,,,,,,,,,,negc_negs,30,-15,15,-15,"[5, 2, 1, 0.5]",lin,1,1,8,0,2,6,up,5,-10,-10,-30,159.28704654199828,159.30762654199498,159.78324425000028,159.78324425000028,159.8578304170005,159.8578304170005,159.86428783299925,160.49282074999792,0,,,,,,,,,,,,,,,eli,0,2025-08-29_11h25.26.790,tilt_staircase,2024.2.4,None,2025-08-29 11h25.34.337792 -0400,
,,,0,0,0,,,,,,,,,,,,,,,,,,0,0,0,0,160.50012704199617,,,,,,,,,,,,,,,,,,,,,,,,,,,,,,,,,,,,,,,,,,,,,,,,,,,,,,,posc_noss,30,15,15,-15,"[5, 2, 1, 0.5]",lin,1,1,8,5,2,7,down,5,10,10,,160.49378862499725,160.50012704199617,160.99044349999895,160.99044349999895,161.06469024999387,161.06469024999387,161.06469024999387,161.39317691699398,1,,,,,,,,,,,,,,,eli,0,2025-08-29_11h25.26.790,tilt_staircase,2024.2.4,None,2025-08-29 11h25.34.337792 -0400,
,,,0,0,0,,,,,,,,,,,,,,,,,,0,0,0,0,161.40095479199954,,,,,,,,,,,,,,,,,,,,,,,,,,,,,,,,,,,,,,,,,,,,,,,,,,,,,,,posc_negs,30,15,15,-15,"[5, 2, 1, 0.5]",lin,1,1,8,1,2,8,up,5,15,15,-30,161.39427204199455,161.40095479199954,161.89120237499446,161.89120237499446,161.96379887499643,161.96379887499643,161.96379887499643,162.4114342920002,1,,,,,,,,,,,,,,,eli,0,2025-08-29_11h25.26.790,tilt_staircase,2024.2.4,None,2025-08-29 11h25.34.337792 -0400,
,,,0,0,0,,,,,,,,,,,,,,,,,,0,0,0,0,162.41993462499522,,,,,,,,,,,,,,,,,,,,,,,,,,,,,,,,,,,,,,,,,,,,,,,,,,,,,,,negc_noss,30,-15,15,-15,"[5, 2, 1, 0.5]",lin,1,1,8,4,2,9,up,5,-10,-10,,162.4126580000011,162.41993462499522,162.90731291699922,162.90731291699922,162.98098445799405,162.98098445799405,162.98098445799405,163.3932547919976,0,,,,,,,,,,,,,,,eli,0,2025-08-29_11h25.26.790,tilt_staircase,2024.2.4,None,2025-08-29 11h25.34.337792 -0400,
,,,0,0,0,,,,,,,,,,,,,,,,,,0,0,0,0,163.40174408299936,,,,,,,,,,,,,,,,,,,,,,,,,,,,,,,,,,,,,,,,,,,,,,,,,,,,,,,negc_poss,30,-15,15,-15,"[5, 2, 1, 0.5]",lin,1,1,8,2,2,10,down,5,-15,-15,30,163.39450087499426,163.40174408299936,163.8897840829959,163.8897840829959,163.9642439579984,163.9642439579984,163.9642439579984,164.34909699999844,0,,,,,,,,,,,,,,,eli,0,2025-08-29_11h25.26.790,tilt_staircase,2024.2.4,None,2025-08-29 11h25.34.337792 -0400,
,,,0,0,0,,,,,,,,,,,,,,,,,,0,0,0,0,164.3570847919982,,,,,,,,,,,,,,,,,,,,,,,,,,,,,,,,,,,,,,,,,,,,,,,,,,,,,,,posc_poss,30,15,15,-15,"[5, 2, 1, 0.5]",lin,1,1,8,3,2,11,up,5,15,15,30,164.35011962499993,164.3570847919982,164.85015149999526,164.85015149999526,164.9245211669986,164.9245211669986,164.9245211669986,165.36852191700018,1,,,,,,,,,,,,,,,eli,0,2025-08-29_11h25.26.790,tilt_staircase,2024.2.4,None,2025-08-29 11h25.34.337792 -0400,
,,,0,0,0,,,,,,,,,,,,,,,,,,0,0,0,0,165.37411533299746,,,,,,,,,,,,,,,,,,,,,,,,,,,,,,,,,,,,,,,,,,,,,,,,,,,,,,,negc_poss,30,-15,15,-15,"[5, 2, 1, 0.5]",lin,1,1,8,2,3,12,up,2,-13,-13,30,165.36965483299718,165.37411533299746,165.8671144580003,165.8671144580003,165.94131233299413,165.94131233299413,165.94131233299413,166.3304718329964,0,,,,,,,,,,,,,,,eli,0,2025-08-29_11h25.26.790,tilt_staircase,2024.2.4,None,2025-08-29 11h25.34.337792 -0400,
,,,0,0,0,,,,,,,,,,,,,,,,,,0,0,0,0,166.3397950419967,,,,,,,,,,,,,,,,,,,,,,,,,,,,,,,,,,,,,,,,,,,,,,,,,,,,,,,posc_negs,30,15,15,-15,"[5, 2, 1, 0.5]",lin,1,1,8,1,3,13,down,2,13,13,-30,166.33146887499606,166.3397950419967,166.82305924999673,166.82305924999673,166.8965077920002,166.8965077920002,166.90798962499684,167.2985985829946,1,,,,,,,,,,,,,,,eli,0,2025-08-29_11h25.26.790,tilt_staircase,2024.2.4,None,2025-08-29 11h25.34.337792 -0400,
,,,0,0,0,,,,,,,,,,,,,,,,,,0,0,0,0,167.30647533299634,,,,,,,,,,,,,,,,,,,,,,,,,,,,,,,,,,,,,,,,,,,,,,,,,,,,,,,negc_negs,30,-15,15,-15,"[5, 2, 1, 0.5]",lin,1,1,8,0,3,14,up,5,-5,-5,-30,167.2995500830002,167.30647533299634,167.7999246670006,167.7999246670006,167.8746802079986,167.8746802079986,167.8746802079986,168.57677249999688,0,,,,,,,,,,,,,,,eli,0,2025-08-29_11h25.26.790,tilt_staircase,2024.2.4,None,2025-08-29 11h25.34.337792 -0400,
,,,0,0,0,,,,,,,,,,,,,,,,,,0,0,0,0,168.58450162499503,,,,,,,,,,,,,,,,,,,,,,,,,,,,,,,,,,,,,,,,,,,,,,,,,,,,,,,posc_poss,30,15,15,-15,"[5, 2, 1, 0.5]",lin,1,1,8,3,3,15,down,2,13,13,30,168.577829707996,168.58450162499503,169.07324120799603,169.07324120799603,169.14675416699902,169.14675416699902,169.14675416699902,169.70928949999507,1,,,,,,,,,,,,,,,eli,0,2025-08-29_11h25.26.790,tilt_staircase,2024.2.4,None,2025-08-29 11h25.34.337792 -0400,
,,,0,0,0,,,,,,,,,,,,,,,,,,0,0,0,0,169.71701091699651,,,,,,,,,,,,,,,,,,,,,,,,,,,,,,,,,,,,,,,,,,,,,,,,,,,,,,,posc_noss,30,15,15,-15,"[5, 2, 1, 0.5]",lin,1,1,8,5,3,16,down,5,5,5,,169.7103340419999,169.71701091699651,170.20647162499517,170.20647162499517,170.28007370799605,170.28007370799605,170.28007370799605,170.62661116699746,1,,,,,,,,,,,,,,,eli,0,2025-08-29_11h25.26.790,tilt_staircase,2024.2.4,None,2025-08-29 11h25.34.337792 -0400,
,,,0,0,0,,,,,,,,,,,,,,,,,,0,0,0,0,170.63451549999445,,,,,,,,,,,,,,,,,,,,,,,,,,,,,,,,,,,,,,,,,,,,,,,,,,,,,,,negc_noss,30,-15,15,-15,"[5, 2, 1, 0.5]",lin,1,1,8,4,3,17,up,5,-5,-5,,170.62782487499499,170.63451549999445,171.12457270799496,171.12457270799496,171.19705254199653,171.19705254199653,171.19705254199653,171.59440399999585,0,,,,,,,,,,,,,,,eli,0,2025-08-29_11h25.26.790,tilt_staircase,2024.2.4,None,2025-08-29 11h25.34.337792 -0400,
,,,0,0,0,,,,,,,,,,,,,,,,,,0,0,0,0,171.6020510419985,,,,,,,,,,,,,,,,,,,,,,,,,,,,,,,,,,,,,,,,,,,,,,,,,,,,,,,posc_negs,30,15,15,-15,"[5, 2, 1, 0.5]",lin,1,1,8,1,4,18,down,2,11,11,-30,171.5954790830001,171.6020510419985,172.08975991699845,172.08975991699845,172.16462845799833,172.16462845799833,172.16462845799833,172.56025637499988,1,,,,,,,,,,,,,,,eli,0,2025-08-29_11h25.26.790,tilt_staircase,2024.2.4,None,2025-08-29 11h25.34.337792 -0400,
,,,0,0,0,,,,,,,,,,,,,,,,,,0,0,0,0,172.56868716699682,,,,,,,,,,,,,,,,,,,,,,,,,,,,,,,,,,,,,,,,,,,,,,,,,,,,,,,posc_noss,30,15,15,-15,"[5, 2, 1, 0.5]",lin,1,1,8,5,4,19,down,5,0,0,,172.56157329199777,172.56868716699682,173.0564101669952,173.0564101669952,173.1289717499967,173.1289717499967,173.1289717499967,173.6933427499971,0,,,,,,,,,,,,,,,eli,0,2025-08-29_11h25.26.790,tilt_staircase,2024.2.4,None,2025-08-29 11h25.34.337792 -0400,
,,,0,0,0,,,,,,,,,,,,,,,,,,0,0,0,0,173.70145245800086,,,,,,,,,,,,,,,,,,,,,,,,,,,,,,,,,,,,,,,,,,,,,,,,,,,,,,,negc_poss,30,-15,15,-15,"[5, 2, 1, 0.5]",lin,1,1,8,2,4,20,up,2,-11,-11,30,173.69486566699925,173.70145245800086,174.18983462499455,174.18983462499455,174.26381254199805,174.26381254199805,174.26381254199805,174.7432319169966,0,,,,,,,,,,,,,,,eli,0,2025-08-29_11h25.26.790,tilt_staircase,2024.2.4,None,2025-08-29 11h25.34.337792 -0400,
,,,0,0,0,,,,,,,,,,,,,,,,,,0,0,0,0,174.75212774999818,,,,,,,,,,,,,,,,,,,,,,,,,,,,,,,,,,,,,,,,,,,,,,,,,,,,,,,negc_negs,30,-15,15,-15,"[5, 2, 1, 0.5]",lin,1,1,8,0,4,21,up,5,0,0,-30,174.7448677919965,174.75212774999818,175.23972179200064,175.23972179200064,175.3122934579951,175.3122934579951,175.3122934579951,175.72757049999927,1,,,,,,,,,,,,,,,eli,0,2025-08-29_11h25.26.790,tilt_staircase,2024.2.4,None,2025-08-29 11h25.34.337792 -0400,
,,,0,0,0,,,,,,,,,,,,,,,,,,0,0,0,0,175.73537887499697,,,,,,,,,,,,,,,,,,,,,,,,,,,,,,,,,,,,,,,,,,,,,,,,,,,,,,,posc_poss,30,15,15,-15,"[5, 2, 1, 0.5]",lin,1,1,8,3,4,22,down,2,11,11,30,175.7286716669987,175.73537887499697,176.22320862500055,176.22320862500055,176.2950196249949,176.2950196249949,176.30779591699684,176.79892216699955,1,,,,,,,,,,,,,,,eli,0,2025-08-29_11h25.26.790,tilt_staircase,2024.2.4,None,2025-08-29 11h25.34.337792 -0400,
,,,0,0,0,,,,,,,,,,,,,,,,,,0,0,0,0,176.80676837499777,,,,,,,,,,,,,,,,,,,,,,,,,,,,,,,,,,,,,,,,,,,,,,,,,,,,,,,negc_noss,30,-15,15,-15,"[5, 2, 1, 0.5]",lin,1,1,8,4,4,23,up,5,0,0,,176.79989908299467,176.80676837499777,177.29980762500054,177.29980762500054,177.3745996669968,177.3745996669968,177.3745996669968,177.89846299999772,1,,,,,,,,,,,,,,,eli,0,2025-08-29_11h25.26.790,tilt_staircase,2024.2.4,None,2025-08-29 11h25.34.337792 -0400,
,,,0,0,0,,,,,,,,,,,,,,,,,,0,0,0,0,177.90619345799496,,,,,,,,,,,,,,,,,,,,,,,,,,,,,,,,,,,,,,,,,,,,,,,,,,,,,,,negc_negs,30,-15,15,-15,"[5, 2, 1, 0.5]",lin,1,1,8,0,5,24,down,2,-2,-2,-30,177.89946904200042,177.90619345799496,178.39947979199496,178.39947979199496,178.48016183299478,178.48016183299478,178.4746257079969,178.99345354199613,1,,,,,,,,,,,,,,,eli,0,2025-08-29_11h25.26.790,tilt_staircase,2024.2.4,None,2025-08-29 11h25.34.337792 -0400,
,,,0,0,0,,,,,,,,,,,,,,,,,,0,0,0,0,179.00097616700077,,,,,,,,,,,,,,,,,,,,,,,,,,,,,,,,,,,,,,,,,,,,,,,,,,,,,,,negc_noss,30,-15,15,-15,"[5, 2, 1, 0.5]",lin,1,1,8,4,5,25,down,2,-2,-2,,178.99449470800027,179.00097616700077,179.49074287499388,179.49074287499388,179.56354745799763,179.56354745799763,179.56354745799763,180.14307670799462,1,,,,,,,,,,,,,,,eli,0,2025-08-29_11h25.26.790,tilt_staircase,2024.2.4,None,2025-08-29 11h25.34.337792 -0400,
,,,0,0,0,,,,,,,,,,,,,,,,,,0,0,0,0,180.15065395800048,,,,,,,,,,,,,,,,,,,,,,,,,,,,,,,,,,,,,,,,,,,,,,,,,,,,,,,posc_poss,30,15,15,-15,"[5, 2, 1, 0.5]",lin,1,1,8,3,5,26,down,2,9,9,30,180.14412970799458,180.15065395800048,180.6397479169973,180.6397479169973,180.71390920799604,180.71390920799604,180.71390920799604,181.06633312499616,1,,,,,,,,,,,,,,,eli,0,2025-08-29_11h25.26.790,tilt_staircase,2024.2.4,None,2025-08-29 11h25.34.337792 -0400,
,,,0,0,0,,,,,,,,,,,,,,,,,,0,0,0,0,181.07427866699436,,,,,,,,,,,,,,,,,,,,,,,,,,,,,,,,,,,,,,,,,,,,,,,,,,,,,,,posc_noss,30,15,15,-15,"[5, 2, 1, 0.5]",lin,1,1,8,5,5,27,up,2,2,2,,181.06749529199442,181.07427866699436,181.56641291699634,181.56641291699634,181.64111729199794,181.64111729199794,181.64111729199794,181.99894362499617,1,,,,,,,,,,,,,,,eli,0,2025-08-29_11h25.26.790,tilt_staircase,2024.2.4,None,2025-08-29 11h25.34.337792 -0400,
,,,0,0,0,,,,,,,,,,,,,,,,,,0,0,0,0,182.00657891699666,,,,,,,,,,,,,,,,,,,,,,,,,,,,,,,,,,,,,,,,,,,,,,,,,,,,,,,posc_negs,30,15,15,-15,"[5, 2, 1, 0.5]",lin,1,1,8,1,5,28,down,2,9,9,-30,181.99993087499752,182.00657891699666,182.49941012499767,182.49941012499767,182.5744746249984,182.5744746249984,182.5744746249984,183.02705612499994,1,,,,,,,,,,,,,,,eli,0,2025-08-29_11h25.26.790,tilt_staircase,2024.2.4,None,2025-08-29 11h25.34.337792 -0400,
,,,0,0,0,,,,,,,,,,,,,,,,,,0,0,0,0,183.0346506249989,,,,,,,,,,,,,,,,,,,,,,,,,,,,,,,,,,,,,,,,,,,,,,,,,,,,,,,negc_poss,30,-15,15,-15,"[5, 2, 1, 0.5]",lin,1,1,8,2,5,29,up,2,-9,-9,30,183.02808370799903,183.0346506249989,183.5230344169977,183.5230344169977,183.59748670800036,183.59748670800036,183.59748670800036,184.01829724999698,0,,,,,,,,,,,,,,,eli,0,2025-08-29_11h25.26.790,tilt_staircase,2024.2.4,None,2025-08-29 11h25.34.337792 -0400,
,,,0,0,0,,,,,,,,,,,,,,,,,,0,0,0,0,184.02371870799834,,,,,,,,,,,,,,,,,,,,,,,,,,,,,,,,,,,,,,,,,,,,,,,,,,,,,,,negc_noss,30,-15,15,-15,"[5, 2, 1, 0.5]",lin,1,1,8,4,6,30,down,2,-4,-4,,184.019219582995,184.02371870799834,184.51640483299707,184.51640483299707,184.5911108750006,184.5911108750006,184.5911108750006,185.1475852079966,0,,,,,,,,,,,,,,,eli,0,2025-08-29_11h25.26.790,tilt_staircase,2024.2.4,None,2025-08-29 11h25.34.337792 -0400,
,,,0,0,0,,,,,,,,,,,,,,,,,,0,0,0,0,185.15632829199603,,,,,,,,,,,,,,,,,,,,,,,,,,,,,,,,,,,,,,,,,,,,,,,,,,,,,,,negc_poss,30,-15,15,-15,"[5, 2, 1, 0.5]",lin,1,1,8,2,6,31,up,2,-7,-7,30,185.14851716699923,185.15632829199603,185.64017274999787,185.64017274999787,185.7130084579985,185.7130084579985,185.72445408299973,186.22443866699905,0,,,,,,,,,,,,,,,eli,0,2025-08-29_11h25.26.790,tilt_staircase,2024.2.4,None,2025-08-29 11h25.34.337792 -0400,
,,,0,0,0,,,,,,,,,,,,,,,,,,0,0,0,0,186.229703332996,,,,,,,,,,,,,,,,,,,,,,,,,,,,,,,,,,,,,,,,,,,,,,,,,,,,,,,posc_poss,30,15,15,-15,"[5, 2, 1, 0.5]",lin,1,1,8,3,6,32,down,2,7,7,30,186.2253765419955,186.229703332996,186.7157351249989,186.7157351249989,186.79129804200056,186.79129804200056,186.79763774999446,187.12666462500056,0,,,,,,,,,,,,,,,eli,0,2025-08-29_11h25.26.790,tilt_staircase,2024.2.4,None,2025-08-29 11h25.34.337792 -0400,
,,,0,0,0,,,,,,,,,,,,,,,,,,0,0,0,0,187.1357081249953,,,,,,,,,,,,,,,,,,,,,,,,,,,,,,,,,,,,,,,,,,,,,,,,,,,,,,,posc_noss,30,15,15,-15,"[5, 2, 1, 0.5]",lin,1,1,8,5,6,33,down,1,1,1,,187.12830795799528,187.1357081249953,187.6230745829962,187.6230745829962,187.6966296249957,187.6966296249957,187.6966296249957,188.1930691249945,0,,,,,,,,,,,,,,,eli,0,2025-08-29_11h25.26.790,tilt_staircase,2024.2.4,None,2025-08-29 11h25.34.337792 -0400,
,,,0,0,0,,,,,,,,,,,,,,,,,,0,0,0,0,188.2009966669939,,,,,,,,,,,,,,,,,,,,,,,,,,,,,,,,,,,,,,,,,,,,,,,,,,,,,,,posc_negs,30,15,15,-15,"[5, 2, 1, 0.5]",lin,1,1,8,1,6,34,down,2,7,7,-30,188.1942721249943,188.2009966669939,188.6898043330002,188.6898043330002,188.7643642080002,188.7643642080002,188.7643642080002,189.21002658299403,1,,,,,,,,,,,,,,,eli,0,2025-08-29_11h25.26.790,tilt_staircase,2024.2.4,None,2025-08-29 11h25.34.337792 -0400,
,,,0,0,0,,,,,,,,,,,,,,,,,,0,0,0,0,189.2180999169941,,,,,,,,,,,,,,,,,,,,,,,,,,,,,,,,,,,,,,,,,,,,,,,,,,,,,,,negc_negs,30,-15,15,-15,"[5, 2, 1, 0.5]",lin,1,1,8,0,6,35,down,2,-4,-4,-30,189.21147270799702,189.2180999169941,189.7064073750007,189.7064073750007,189.78066287499678,189.78066287499678,189.78066287499678,190.41513804200076,0,,,,,,,,,,,,,,,eli,0,2025-08-29_11h25.26.790,tilt_staircase,2024.2.4,None,2025-08-29 11h25.34.337792 -0400,
,,,0,0,0,,,,,,,,,,,,,,,,,,0,0,0,0,190.42367104200093,,,,,,,,,,,,,,,,,,,,,,,,,,,,,,,,,,,,,,,,,,,,,,,,,,,,,,,posc_negs,30,15,15,-15,"[5, 2, 1, 0.5]",lin,1,1,8,1,7,36,down,2,5,5,-30,190.41632487499737,190.42367104200093,190.9159707919971,190.9159707919971,190.99077329199645,190.99077329199645,190.99077329199645,191.4822783329946,1,,,,,,,,,,,,,,,eli,0,2025-08-29_11h25.26.790,tilt_staircase,2024.2.4,None,2025-08-29 11h25.34.337792 -0400,
,,,0,0,0,,,,,,,,,,,,,,,,,,0,0,0,0,191.49021037499915,,,,,,,,,,,,,,,,,,,,,,,,,,,,,,,,,,,,,,,,,,,,,,,,,,,,,,,negc_noss,30,-15,15,-15,"[5, 2, 1, 0.5]",lin,1,1,8,4,7,37,up,1,-3,-3,,191.4832497919997,191.49021037499915,191.9810014169998,191.9810014169998,192.05695074999676,192.05695074999676,192.05695074999676,192.46306466699752,0,,,,,,,,,,,,,,,eli,0,2025-08-29_11h25.26.790,tilt_staircase,2024.2.4,None,2025-08-29 11h25.34.337792 -0400,
,,,0,0,0,,,,,,,,,,,,,,,,,,0,0,0,0,192.47311600000103,,,,,,,,,,,,,,,,,,,,,,,,,,,,,,,,,,,,,,,,,,,,,,,,,,,,,,,posc_poss,30,15,15,-15,"[5, 2, 1, 0.5]",lin,1,1,8,3,7,38,up,1,8,8,30,192.4635809169995,192.47311600000103,192.95638854199933,192.95638854199933,193.03024899999582,193.03024899999582,193.04084741699626,193.37762245799968,1,,,,,,,,,,,,,,,eli,0,2025-08-29_11h25.26.790,tilt_staircase,2024.2.4,None,2025-08-29 11h25.34.337792 -0400,
,,,0,0,0,,,,,,,,,,,,,,,,,,0,0,0,0,193.38620912499755,,,,,,,,,,,,,,,,,,,,,,,,,,,,,,,,,,,,,,,,,,,,,,,,,,,,,,,posc_noss,30,15,15,-15,"[5, 2, 1, 0.5]",lin,1,1,8,5,7,39,up,0.5,1.5,1.5,,193.37885395799822,193.38620912499755,193.87301741699775,193.87301741699775,193.94755095800065,193.94755095800065,193.94755095800065,194.43085666700063,1,,,,,,,,,,,,,,,eli,0,2025-08-29_11h25.26.790,tilt_staircase,2024.2.4,None,2025-08-29 11h25.34.337792 -0400,
,,,0,0,0,,,,,,,,,,,,,,,,,,0,0,0,0,194.43969479199586,,,,,,,,,,,,,,,,,,,,,,,,,,,,,,,,,,,,,,,,,,,,,,,,,,,,,,,negc_negs,30,-15,15,-15,"[5, 2, 1, 0.5]",lin,1,1,8,0,7,40,up,1,-3,-3,-30,194.43195666699467,194.43969479199586,194.92309399999795,194.92309399999795,194.99662445799913,194.99662445799913,195.00785812499817,195.35175454199634,1,,,,,,,,,,,,,,,eli,0,2025-08-29_11h25.26.790,tilt_staircase,2024.2.4,None,2025-08-29 11h25.34.337792 -0400,
,,,0,0,0,,,,,,,,,,,,,,,,,,0,0,0,0,195.3573302500008,,,,,,,,,,,,,,,,,,,,,,,,,,,,,,,,,,,,,,,,,,,,,,,,,,,,,,,negc_poss,30,-15,15,-15,"[5, 2, 1, 0.5]",lin,1,1,8,2,7,41,up,2,-5,-5,30,195.35280658299598,195.3573302500008,195.84980366699892,195.84980366699892,195.92443687500054,195.92443687500054,195.9303779999973,196.34867391699663,0,,,,,,,,,,,,,,,eli,0,2025-08-29_11h25.26.790,tilt_staircase,2024.2.4,None,2025-08-29 11h25.34.337792 -0400,
,,,0,0,0,,,,,,,,,,,,,,,,,,0,0,0,0,196.35678412499692,,,,,,,,,,,,,,,,,,,,,,,,,,,,,,,,,,,,,,,,,,,,,,,,,,,,,,,posc_negs,30,15,15,-15,"[5, 2, 1, 0.5]",lin,1,1,8,1,8,42,down,2,3,3,-30,196.34969891699438,196.35678412499692,196.84949345799396,196.84949345799396,196.92407120799908,196.92407120799908,196.92407120799908,197.30145912499574,1,,,,,,,,,,,,,,,eli,0,2025-08-29_11h25.26.790,tilt_staircase,2024.2.4,None,2025-08-29 11h25.34.337792 -0400,
,,,0,0,0,,,,,,,,,,,,,,,,,,0,0,0,0,197.30698524999752,,,,,,,,,,,,,,,,,,,,,,,,,,,,,,,,,,,,,,,,,,,,,,,,,,,,,,,posc_poss,30,15,15,-15,"[5, 2, 1, 0.5]",lin,1,1,8,3,8,43,down,0.5,7.5,7.5,30,197.3024022919999,197.30698524999752,197.79978187500092,197.79978187500092,197.87469141699694,197.87469141699694,197.8814154579959,198.36560641699907,1,,,,,,,,,,,,,,,eli,0,2025-08-29_11h25.26.790,tilt_staircase,2024.2.4,None,2025-08-29 11h25.34.337792 -0400,
,,,0,0,0,,,,,,,,,,,,,,,,,,0,0,0,0,198.37387233299523,,,,,,,,,,,,,,,,,,,,,,,,,,,,,,,,,,,,,,,,,,,,,,,,,,,,,,,negc_poss,30,-15,15,-15,"[5, 2, 1, 0.5]",lin,1,1,8,2,8,44,up,2,-3,-3,30,198.36663195800065,198.37387233299523,198.856812041995,198.856812041995,198.93018066699733,198.93018066699733,198.94108254199818,199.28233337499842,0,,,,,,,,,,,,,,,eli,0,2025-08-29_11h25.26.790,tilt_staircase,2024.2.4,None,2025-08-29 11h25.34.337792 -0400,
,,,0,0,0,,,,,,,,,,,,,,,,,,0,0,0,0,199.29062566699577,,,,,,,,,,,,,,,,,,,,,,,,,,,,,,,,,,,,,,,,,,,,,,,,,,,,,,,posc_noss,30,15,15,-15,"[5, 2, 1, 0.5]",lin,1,1,8,5,8,45,down,0.5,1.0,1.0,,199.28338341699418,199.29062566699577,199.783203125,199.783203125,199.85795004199463,199.85795004199463,199.85795004199463,200.3099465829946,1,,,,,,,,,,,,,,,eli,0,2025-08-29_11h25.26.790,tilt_staircase,2024.2.4,None,2025-08-29 11h25.34.337792 -0400,
,,,0,0,0,,,,,,,,,,,,,,,,,,0,0,0,0,200.31836629199825,,,,,,,,,,,,,,,,,,,,,,,,,,,,,,,,,,,,,,,,,,,,,,,,,,,,,,,negc_negs,30,-15,15,-15,"[5, 2, 1, 0.5]",lin,1,1,8,0,8,46,down,0.5,-3.5,-3.5,-30,200.31142712499422,200.31836629199825,200.80650462499761,200.80650462499761,200.88129687499895,200.88129687499895,200.88129687499895,201.46010429199669,0,,,,,,,,,,,,,,,eli,0,2025-08-29_11h25.26.790,tilt_staircase,2024.2.4,None,2025-08-29 11h25.34.337792 -0400,
,,,0,0,0,,,,,,,,,,,,,,,,,,0,0,0,0,201.46846779199404,,,,,,,,,,,,,,,,,,,,,,,,,,,,,,,,,,,,,,,,,,,,,,,,,,,,,,,negc_noss,30,-15,15,-15,"[5, 2, 1, 0.5]",lin,1,1,8,4,8,47,up,1,-2,-2,,201.46175458299695,201.46846779199404,201.95637224999518,201.95637224999518,202.03011145799974,202.03011145799974,202.03011145799974,202.61089762499614,0,,,,,,,,,,,,,,,eli,0,2025-08-29_11h25.26.790,tilt_staircase,2024.2.4,None,2025-08-29 11h25.34.337792 -0400,
,,,0,0,0,,,,,,,,,,,,,,,,,,0,0,0,0,202.61882237499958,,,,,,,,,,,,,,,,,,,,,,,,,,,,,,,,,,,,,,,,,,,,,,,,,,,,,,,negc_noss,30,-15,15,-15,"[5, 2, 1, 0.5]",lin,1,1,8,4,9,48,up,1,-1,-1,,202.6120124999943,202.61882237499958,203.1063155419979,203.1063155419979,203.17825420799636,203.17825420799636,203.19140974999755,203.61511529199925,0,,,,,,,,,,,,,,,eli,0,2025-08-29_11h25.26.790,tilt_staircase,2024.2.4,None,2025-08-29 11h25.34.337792 -0400,
,,,0,0,0,,,,,,,,,,,,,,,,,,0,0,0,0,203.62304316699738,,,,,,,,,,,,,,,,,,,,,,,,,,,,,,,,,,,,,,,,,,,,,,,,,,,,,,,posc_poss,30,15,15,-15,"[5, 2, 1, 0.5]",lin,1,1,8,3,9,49,down,0.5,7.0,7.0,30,203.6160909579994,203.62304316699738,204.11668349999673,204.11668349999673,204.1907829999982,204.1907829999982,204.1907829999982,204.8264862079959,1,,,,,,,,,,,,,,,eli,0,2025-08-29_11h25.26.790,tilt_staircase,2024.2.4,None,2025-08-29 11h25.34.337792 -0400,
,,,0,0,0,,,,,,,,,,,,,,,,,,0,0,0,0,204.83425074999832,,,,,,,,,,,,,,,,,,,,,,,,,,,,,,,,,,,,,,,,,,,,,,,,,,,,,,,posc_noss,30,15,15,-15,"[5, 2, 1, 0.5]",lin,1,1,8,5,9,50,down,0.5,0.5,0.5,,204.82767174999753,204.83425074999832,205.3243265419951,205.3243265419951,205.3970874999941,205.3970874999941,205.3970874999941,205.93513999999413,1,,,,,,,,,,,,,,,eli,0,2025-08-29_11h25.26.790,tilt_staircase,2024.2.4,None,2025-08-29 11h25.34.337792 -0400,
,,,0,0,0,,,,,,,,,,,,,,,,,,0,0,0,0,205.94062183299684,,,,,,,,,,,,,,,,,,,,,,,,,,,,,,,,,,,,,,,,,,,,,,,,,,,,,,,negc_poss,30,-15,15,-15,"[5, 2, 1, 0.5]",lin,1,1,8,2,9,51,up,2,-1,-1,30,205.93613424999785,205.94062183299684,206.4327549169975,206.4327549169975,206.50808783299726,206.50808783299726,206.51370583300013,206.8940706669964,0,,,,,,,,,,,,,,,eli,0,2025-08-29_11h25.26.790,tilt_staircase,2024.2.4,None,2025-08-29 11h25.34.337792 -0400,
,,,0,0,0,,,,,,,,,,,,,,,,,,0,0,0,0,206.90180300000065,,,,,,,,,,,,,,,,,,,,,,,,,,,,,,,,,,,,,,,,,,,,,,,,,,,,,,,negc_negs,30,-15,15,-15,"[5, 2, 1, 0.5]",lin,1,1,8,0,9,52,up,0.5,-3.0,-3.0,-30,206.8952247079942,206.90180300000065,207.38973229199473,207.38973229199473,207.4637215420007,207.4637215420007,207.4637215420007,208.08493358299893,1,,,,,,,,,,,,,,,eli,0,2025-08-29_11h25.26.790,tilt_staircase,2024.2.4,None,2025-08-29 11h25.34.337792 -0400,
,,,0,0,0,,,,,,,,,,,,,,,,,,0,0,0,0,208.09065700000065,,,,,,,,,,,,,,,,,,,,,,,,,,,,,,,,,,,,,,,,,,,,,,,,,,,,,,,posc_negs,30,15,15,-15,"[5, 2, 1, 0.5]",lin,1,1,8,1,9,53,down,2,1,1,-30,208.08595049999713,208.09065700000065,208.58243008299905,208.58243008299905,208.657755041997,208.657755041997,208.66377237499546,209.10982183300075,1,,,,,,,,,,,,,,,eli,0,2025-08-29_11h25.26.790,tilt_staircase,2024.2.4,None,2025-08-29 11h25.34.337792 -0400,
,,,0,0,0,,,,,,,,,,,,,,,,,,0,0,0,0,209.11773354199977,,,,,,,,,,,,,,,,,,,,,,,,,,,,,,,,,,,,,,,,,,,,,,,,,,,,,,,posc_noss,30,15,15,-15,"[5, 2, 1, 0.5]",lin,1,1,8,5,10,54,down,0.5,0.0,0.0,,209.1110217079986,209.11773354199977,209.6064003749998,209.6064003749998,209.68030804199952,209.68030804199952,209.68030804199952,210.08174391699868,0,,,,,,,,,,,,,,,eli,0,2025-08-29_11h25.26.790,tilt_staircase,2024.2.4,None,2025-08-29 11h25.34.337792 -0400,
,,,0,0,0,,,,,,,,,,,,,,,,,,0,0,0,0,210.08945258300082,,,,,,,,,,,,,,,,,,,,,,,,,,,,,,,,,,,,,,,,,,,,,,,,,,,,,,,posc_negs,30,15,15,-15,"[5, 2, 1, 0.5]",lin,1,1,8,1,10,55,down,2,-1,-1,-30,210.08269825000025,210.08945258300082,210.58249233300012,210.58249233300012,210.65744483299932,210.65744483299932,210.65744483299932,210.89252449999913,1,,,,,,,,,,,,,,,eli,0,2025-08-29_11h25.26.790,tilt_staircase,2024.2.4,None,2025-08-29 11h25.34.337792 -0400,
,,,0,0,0,,,,,,,,,,,,,,,,,,0,0,0,0,210.89993541700096,,,,,,,,,,,,,,,,,,,,,,,,,,,,,,,,,,,,,,,,,,,,,,,,,,,,,,,negc_poss,30,-15,15,-15,"[5, 2, 1, 0.5]",lin,1,1,8,2,10,56,up,2,1,1,30,210.89350624999497,210.89993541700096,211.38969016699411,211.38969016699411,211.46381899999687,211.46381899999687,211.46381899999687,211.8319913749947,1,,,,,,,,,,,,,,,eli,0,2025-08-29_11h25.26.790,tilt_staircase,2024.2.4,None,2025-08-29 11h25.34.337792 -0400,
,,,0,0,0,,,,,,,,,,,,,,,,,,0,0,0,0,211.83965437499864,,,,,,,,,,,,,,,,,,,,,,,,,,,,,,,,,,,,,,,,,,,,,,,,,,,,,,,negc_noss,30,-15,15,-15,"[5, 2, 1, 0.5]",lin,1,1,8,4,10,57,up,1,0,0,,211.83294383299653,211.83965437499864,212.33258408300026,212.33258408300026,212.407841207998,212.407841207998,212.407841207998,212.97641887499776,1,,,,,,,,,,,,,,,eli,0,2025-08-29_11h25.26.790,tilt_staircase,2024.2.4,None,2025-08-29 11h25.34.337792 -0400,
,,,0,0,0,,,,,,,,,,,,,,,,,,0,0,0,0,212.98413199999777,,,,,,,,,,,,,,,,,,,,,,,,,,,,,,,,,,,,,,,,,,,,,,,,,,,,,,,negc_negs,30,-15,15,-15,"[5, 2, 1, 0.5]",lin,1,1,8,0,10,58,down,0.5,-3.5,-3.5,-30,212.97756699999445,212.98413199999777,213.4740525829984,213.4740525829984,213.54656120800064,213.54656120800064,213.54656120800064,213.96781550000014,1,,,,,,,,,,,,,,,eli,0,2025-08-29_11h25.26.790,tilt_staircase,2024.2.4,None,2025-08-29 11h25.34.337792 -0400,
,,,0,0,0,,,,,,,,,,,,,,,,,,0,0,0,0,213.97325858299882,,,,,,,,,,,,,,,,,,,,,,,,,,,,,,,,,,,,,,,,,,,,,,,,,,,,,,,posc_poss,30,15,15,-15,"[5, 2, 1, 0.5]",lin,1,1,8,3,10,59,down,0.5,6.5,6.5,30,213.968758832998,213.97325858299882,214.46456958299677,214.46456958299677,214.54069204199914,214.54069204199914,214.54069204199914,215.05888429199695,1,,,,,,,,,,,,,,,eli,0,2025-08-29_11h25.26.790,tilt_staircase,2024.2.4,None,2025-08-29 11h25.34.337792 -0400,
,,,0,0,0,,,,,,,,,,,,,,,,,,0,0,0,0,215.06601716699515,,,,,,,,,,,,,,,,,,,,,,,,,,,,,,,,,,,,,,,,,,,,,,,,,,,,,,,posc_noss,30,15,15,-15,"[5, 2, 1, 0.5]",lin,1,1,8,5,11,60,up,0.5,0.5,0.5,,215.0598470420009,215.06601716699515,215.55770308299543,215.55770308299543,215.63097295799525,215.63097295799525,215.63097295799525,215.99617320799734,1,,,,,,,,,,,,,,,eli,0,2025-08-29_11h25.26.790,tilt_staircase,2024.2.4,None,2025-08-29 11h25.34.337792 -0400,
,,,0,0,0,,,,,,,,,,,,,,,,,,0,0,0,0,216.0063517499948,,,,,,,,,,,,,,,,,,,,,,,,,,,,,,,,,,,,,,,,,,,,,,,,,,,,,,,negc_poss,30,-15,15,-15,"[5, 2, 1, 0.5]",lin,1,1,8,2,11,61,down,1,0,0,30,215.99720308299584,216.0063517499948,216.48968537499604,216.48968537499604,216.56230720799795,216.56230720799795,216.5745644579947,217.0606958329954,0,,,,,,,,,,,,,,,eli,0,2025-08-29_11h25.26.790,tilt_staircase,2024.2.4,None,2025-08-29 11h25.34.337792 -0400,
,,,0,0,0,,,,,,,,,,,,,,,,,,0,0,0,0,217.0686232500011,,,,,,,,,,,,,,,,,,,,,,,,,,,,,,,,,,,,,,,,,,,,,,,,,,,,,,,posc_poss,30,15,15,-15,"[5, 2, 1, 0.5]",lin,1,1,8,3,11,62,down,0.5,6.0,6.0,30,217.06183462499757,217.0686232500011,217.55663383299543,217.55663383299543,217.63051962499594,217.63051962499594,217.63051962499594,218.32810308299668,1,,,,,,,,,,,,,,,eli,0,2025-08-29_11h25.26.790,tilt_staircase,2024.2.4,None,2025-08-29 11h25.34.337792 -0400,
,,,0,0,0,,,,,,,,,,,,,,,,,,0,0,0,0,218.336386707997,,,,,,,,,,,,,,,,,,,,,,,,,,,,,,,,,,,,,,,,,,,,,,,,,,,,,,,negc_noss,30,-15,15,-15,"[5, 2, 1, 0.5]",lin,1,1,8,4,11,63,down,0.5,-0.5,-0.5,,218.32925162500032,218.336386707997,218.8229837079998,218.8229837079998,218.89685541699873,218.89685541699873,218.89685541699873,219.7290944579945,0,,,,,,,,,,,,,,,eli,0,2025-08-29_11h25.26.790,tilt_staircase,2024.2.4,None,2025-08-29 11h25.34.337792 -0400,
,,,0,0,0,,,,,,,,,,,,,,,,,,0,0,0,0,219.74036520799564,,,,,,,,,,,,,,,,,,,,,,,,,,,,,,,,,,,,,,,,,,,,,,,,,,,,,,,posc_negs,30,15,15,-15,"[5, 2, 1, 0.5]",lin,1,1,8,1,11,64,down,2,-3,-3,-30,219.72980020799878,219.74036520799564,220.22334595799475,220.22334595799475,220.2954158329958,220.2954158329958,220.30753895799717,220.74346683299518,1,,,,,,,,,,,,,,,eli,0,2025-08-29_11h25.26.790,tilt_staircase,2024.2.4,None,2025-08-29 11h25.34.337792 -0400,
,,,0,0,0,,,,,,,,,,,,,,,,,,0,0,0,0,220.75167441699887,,,,,,,,,,,,,,,,,,,,,,,,,,,,,,,,,,,,,,,,,,,,,,,,,,,,,,,negc_negs,30,-15,15,-15,"[5, 2, 1, 0.5]",lin,1,1,8,0,11,65,down,0.5,-4.0,-4.0,-30,220.74460979199648,220.75167441699887,221.23967524999898,221.23967524999898,221.31342195799516,221.31342195799516,221.31342195799516,221.70909937499528,0,,,,,,,,,,,,,,,eli,0,2025-08-29_11h25.26.790,tilt_staircase,2024.2.4,None,2025-08-29 11h25.34.337792 -0400,
,,,0,0,0,,,,,,,,,,,,,,,,,,0,0,0,0,221.71721229199466,,,,,,,,,,,,,,,,,,,,,,,,,,,,,,,,,,,,,,,,,,,,,,,,,,,,,,,posc_negs,30,15,15,-15,"[5, 2, 1, 0.5]",lin,1,1,8,1,12,66,down,2,-5,-5,-30,221.71022479199746,221.71721229199466,222.20728645799682,222.20728645799682,222.28127024999412,222.28127024999412,222.28127024999412,222.64467324999714,1,,,,,,,,,,,,,,,eli,0,2025-08-29_11h25.26.790,tilt_staircase,2024.2.4,None,2025-08-29 11h25.34.337792 -0400,
,,,0,0,0,,,,,,,,,,,,,,,,,,0,0,0,0,222.65320950000023,,,,,,,,,,,,,,,,,,,,,,,,,,,,,,,,,,,,,,,,,,,,,,,,,,,,,,,posc_noss,30,15,15,-15,"[5, 2, 1, 0.5]",lin,1,1,8,5,12,67,down,0.5,0.0,0.0,,222.64588258299773,222.65320950000023,223.14042283299932,223.14042283299932,223.21353670799726,223.21353670799726,223.21353670799726,223.64623058299912,0,,,,,,,,,,,,,,,eli,0,2025-08-29_11h25.26.790,tilt_staircase,2024.2.4,None,2025-08-29 11h25.34.337792 -0400,
,,,0,0,0,,,,,,,,,,,,,,,,,,0,0,0,0,223.65640512499522,,,,,,,,,,,,,,,,,,,,,,,,,,,,,,,,,,,,,,,,,,,,,,,,,,,,,,,negc_poss,30,-15,15,-15,"[5, 2, 1, 0.5]",lin,1,1,8,2,12,68,up,0.5,0.5,0.5,30,223.64726720799808,223.65640512499522,224.13967908299674,224.13967908299674,224.21294345799834,224.21294345799834,224.22362895799597,224.71011941699544,0,,,,,,,,,,,,,,,eli,0,2025-08-29_11h25.26.790,tilt_staircase,2024.2.4,None,2025-08-29 11h25.34.337792 -0400,
,,,0,0,0,,,,,,,,,,,,,,,,,,0,0,0,0,224.71880699999747,,,,,,,,,,,,,,,,,,,,,,,,,,,,,,,,,,,,,,,,,,,,,,,,,,,,,,,posc_poss,30,15,15,-15,"[5, 2, 1, 0.5]",lin,1,1,8,3,12,69,down,0.5,5.5,5.5,30,224.7119316669996,224.71880699999747,225.2062704169948,225.2062704169948,225.28085274999466,225.28085274999466,225.28085274999466,225.74906466699758,1,,,,,,,,,,,,,,,eli,0,2025-08-29_11h25.26.790,tilt_staircase,2024.2.4,None,2025-08-29 11h25.34.337792 -0400,
,,,0,0,0,,,,,,,,,,,,,,,,,,0,0,0,0,225.75691862499662,,,,,,,,,,,,,,,,,,,,,,,,,,,,,,,,,,,,,,,,,,,,,,,,,,,,,,,negc_noss,30,-15,15,-15,"[5, 2, 1, 0.5]",lin,1,1,8,4,12,70,up,0.5,0.0,0.0,,225.75005033299385,225.75691862499662,226.2489700829974,226.2489700829974,226.3243488329972,226.3243488329972,226.3243488329972,226.75993037499575,0,,,,,,,,,,,,,,,eli,0,2025-08-29_11h25.26.790,tilt_staircase,2024.2.4,None,2025-08-29 11h25.34.337792 -0400,
,,,0,0,0,,,,,,,,,,,,,,,,,,0,0,0,0,226.76783370799967,,,,,,,,,,,,,,,,,,,,,,,,,,,,,,,,,,,,,,,,,,,,,,,,,,,,,,,negc_negs,30,-15,15,-15,"[5, 2, 1, 0.5]",lin,1,1,8,0,12,71,up,0.5,-3.5,-3.5,-30,226.76120412499586,226.76783370799967,227.2563299579997,227.2563299579997,227.33050187499612,227.33050187499612,227.33050187499612,227.80093325000053,0,,,,,,,,,,,,,,,eli,0,2025-08-29_11h25.26.790,tilt_staircase,2024.2.4,None,2025-08-29 11h25.34.337792 -0400,
,,,0,0,0,,,,,,,,,,,,,,,,,,0,0,0,0,227.80651470799785,,,,,,,,,,,,,,,,,,,,,,,,,,,,,,,,,,,,,,,,,,,,,,,,,,,,,,,posc_noss,30,15,15,-15,"[5, 2, 1, 0.5]",lin,1,1,8,5,13,72,up,0.5,0.5,0.5,,227.80195549999917,227.80651470799785,228.2994733749947,228.2994733749947,228.37404216700088,228.37404216700088,228.37404216700088,228.84312954199413,1,,,,,,,,,,,,,,,eli,0,2025-08-29_11h25.26.790,tilt_staircase,2024.2.4,None,2025-08-29 11h25.34.337792 -0400,
,,,0,0,0,,,,,,,,,,,,,,,,,,0,0,0,0,228.85096645799786,,,,,,,,,,,,,,,,,,,,,,,,,,,,,,,,,,,,,,,,,,,,,,,,,,,,,,,posc_poss,30,15,15,-15,"[5, 2, 1, 0.5]",lin,1,1,8,3,13,73,down,0.5,5.0,5.0,30,228.84420170799422,228.85096645799786,229.3396246669945,229.3396246669945,229.41395550000016,229.41395550000016,229.41395550000016,229.7961323749987,0,,,,,,,,,,,,,,,eli,0,2025-08-29_11h25.26.790,tilt_staircase,2024.2.4,None,2025-08-29 11h25.34.337792 -0400,
,,,0,0,0,,,,,,,,,,,,,,,,,,0,0,0,0,229.8071534999981,,,,,,,,,,,,,,,,,,,,,,,,,,,,,,,,,,,,,,,,,,,,,,,,,,,,,,,negc_noss,30,-15,15,-15,"[5, 2, 1, 0.5]",lin,1,1,8,4,13,74,up,0.5,0.5,0.5,,229.7970649169947,229.8071534999981,230.28961237499607,230.28961237499607,230.36354608299735,230.36354608299735,230.37404029199388,230.67571966700052,1,,,,,,,,,,,,,,,eli,0,2025-08-29_11h25.26.790,tilt_staircase,2024.2.4,None,2025-08-29 11h25.34.337792 -0400,
,,,0,0,0,,,,,,,,,,,,,,,,,,0,0,0,0,230.68296012499923,,,,,,,,,,,,,,,,,,,,,,,,,,,,,,,,,,,,,,,,,,,,,,,,,,,,,,,negc_negs,30,-15,15,-15,"[5, 2, 1, 0.5]",lin,1,1,8,0,13,75,up,0.5,-3.0,-3.0,-30,230.6768359169946,230.68296012499923,231.17332645799615,231.17332645799615,231.2457939579981,231.2457939579981,231.2457939579981,231.7425532079942,1,,,,,,,,,,,,,,,eli,0,2025-08-29_11h25.26.790,tilt_staircase,2024.2.4,None,2025-08-29 11h25.34.337792 -0400,
,,,0,0,0,,,,,,,,,,,,,,,,,,0,0,0,0,231.74970354199468,,,,,,,,,,,,,,,,,,,,,,,,,,,,,,,,,,,,,,,,,,,,,,,,,,,,,,,posc_negs,30,15,15,-15,"[5, 2, 1, 0.5]",lin,1,1,8,1,13,76,down,2,-7,-7,-30,231.7435562499959,231.74970354199468,232.23961941699963,232.23961941699963,232.31215441699896,232.31215441699896,232.31215441699896,232.73161970799993,1,,,,,,,,,,,,,,,eli,0,2025-08-29_11h25.26.790,tilt_staircase,2024.2.4,None,2025-08-29 11h25.34.337792 -0400,
,,,0,0,0,,,,,,,,,,,,,,,,,,0,0,0,0,232.73943891700037,,,,,,,,,,,,,,,,,,,,,,,,,,,,,,,,,,,,,,,,,,,,,,,,,,,,,,,negc_poss,30,-15,15,-15,"[5, 2, 1, 0.5]",lin,1,1,8,2,13,77,up,0.5,1.0,1.0,30,232.73260408299393,232.73943891700037,233.23310366700025,233.23310366700025,233.30726937500003,233.30726937500003,233.30726937500003,233.74320658299985,0,,,,,,,,,,,,,,,eli,0,2025-08-29_11h25.26.790,tilt_staircase,2024.2.4,None,2025-08-29 11h25.34.337792 -0400,
,,,0,0,0,,,,,,,,,,,,,,,,,,0,0,0,0,233.75092112499988,,,,,,,,,,,,,,,,,,,,,,,,,,,,,,,,,,,,,,,,,,,,,,,,,,,,,,,negc_negs,30,-15,15,-15,"[5, 2, 1, 0.5]",lin,1,1,8,0,14,78,down,0.5,-3.5,-3.5,-30,233.7442891249957,233.75092112499988,234.23958283299726,234.23958283299726,234.3141041669951,234.3141041669951,234.3141041669951,234.97679074999905,0,,,,,,,,,,,,,,,eli,0,2025-08-29_11h25.26.790,tilt_staircase,2024.2.4,None,2025-08-29 11h25.34.337792 -0400,
,,,0,0,0,,,,,,,,,,,,,,,,,,0,0,0,0,234.9851678329942,,,,,,,,,,,,,,,,,,,,,,,,,,,,,,,,,,,,,,,,,,,,,,,,,,,,,,,negc_poss,30,-15,15,-15,"[5, 2, 1, 0.5]",lin,1,1,8,2,14,79,up,0.5,1.5,1.5,30,234.97859445799986,234.9851678329942,235.4731862080007,235.4731862080007,235.54717604199686,235.54717604199686,235.54717604199686,235.9763729999977,0,,,,,,,,,,,,,,,eli,0,2025-08-29_11h25.26.790,tilt_staircase,2024.2.4,None,2025-08-29 11h25.34.337792 -0400,
,,,0,0,0,,,,,,,,,,,,,,,,,,0,0,0,0,235.98439349999535,,,,,,,,,,,,,,,,,,,,,,,,,,,,,,,,,,,,,,,,,,,,,,,,,,,,,,,posc_noss,30,15,15,-15,"[5, 2, 1, 0.5]",lin,1,1,8,5,14,80,down,0.5,0.0,0.0,,235.9777051669953,235.98439349999535,236.47311279199494,236.47311279199494,236.54712933299743,236.54712933299743,236.54712933299743,236.88210720799543,0,,,,,,,,,,,,,,,eli,0,2025-08-29_11h25.26.790,tilt_staircase,2024.2.4,None,2025-08-29 11h25.34.337792 -0400,
,,,0,0,0,,,,,,,,,,,,,,,,,,0,0,0,0,236.88986408299388,,,,,,,,,,,,,,,,,,,,,,,,,,,,,,,,,,,,,,,,,,,,,,,,,,,,,,,negc_noss,30,-15,15,-15,"[5, 2, 1, 0.5]",lin,1,1,8,4,14,81,down,0.5,0.0,0.0,,236.88327679199574,236.88986408299388,237.3830322079957,237.3830322079957,237.45727241699933,237.45727241699933,237.45727241699933,237.7818465829987,0,,,,,,,,,,,,,,,eli,0,2025-08-29_11h25.26.790,tilt_staircase,2024.2.4,None,2025-08-29 11h25.34.337792 -0400,
,,,0,0,0,,,,,,,,,,,,,,,,,,0,0,0,0,237.78967099999863,,,,,,,,,,,,,,,,,,,,,,,,,,,,,,,,,,,,,,,,,,,,,,,,,,,,,,,posc_negs,30,15,15,-15,"[5, 2, 1, 0.5]",lin,1,1,8,1,14,82,down,2,-9,-9,-30,237.78282320799917,237.78967099999863,238.28070279199892,238.28070279199892,238.3575912919987,238.3575912919987,238.3575912919987,238.8317600829978,0,,,,,,,,,,,,,,,eli,0,2025-08-29_11h25.26.790,tilt_staircase,2024.2.4,None,2025-08-29 11h25.34.337792 -0400,
,,,0,0,0,,,,,,,,,,,,,,,,,,0,0,0,0,238.83949741700053,,,,,,,,,,,,,,,,,,,,,,,,,,,,,,,,,,,,,,,,,,,,,,,,,,,,,,,posc_poss,30,15,15,-15,"[5, 2, 1, 0.5]",lin,1,1,8,3,14,83,up,0.5,5.5,5.5,30,238.83272058299917,238.83949741700053,239.33269462499447,239.33269462499447,239.40758174999792,239.40758174999792,239.40758174999792,239.88413924999622,1,,,,,,,,,,,,,,,eli,0,2025-08-29_11h25.26.790,tilt_staircase,2024.2.4,None,2025-08-29 11h25.34.337792 -0400,
,,,0,0,0,,,,,,,,,,,,,,,,,,0,0,0,0,239.8896476250011,,,,,,,,,,,,,,,,,,,,,,,,,,,,,,,,,,,,,,,,,,,,,,,,,,,,,,,negc_negs,30,-15,15,-15,"[5, 2, 1, 0.5]",lin,1,1,8,0,15,84,up,0.5,-3.0,-3.0,-30,239.88512941699446,239.8896476250011,240.38292637499399,240.38292637499399,240.45724691699434,240.45724691699434,240.45724691699434,240.97638566699607,1,,,,,,,,,,,,,,,eli,0,2025-08-29_11h25.26.790,tilt_staircase,2024.2.4,None,2025-08-29 11h25.34.337792 -0400,
,,,0,0,0,,,,,,,,,,,,,,,,,,0,0,0,0,240.98468920799496,,,,,,,,,,,,,,,,,,,,,,,,,,,,,,,,,,,,,,,,,,,,,,,,,,,,,,,posc_negs,30,15,15,-15,"[5, 2, 1, 0.5]",lin,1,1,8,1,15,85,up,1,-8,-8,-30,240.97792724999454,240.98468920799496,241.4732428749994,241.4732428749994,241.54722087499977,241.54722087499977,241.54722087499977,241.92637470799673,0,,,,,,,,,,,,,,,eli,0,2025-08-29_11h25.26.790,tilt_staircase,2024.2.4,None,2025-08-29 11h25.34.337792 -0400,
,,,0,0,0,,,,,,,,,,,,,,,,,,0,0,0,0,241.93448299999727,,,,,,,,,,,,,,,,,,,,,,,,,,,,,,,,,,,,,,,,,,,,,,,,,,,,,,,posc_poss,30,15,15,-15,"[5, 2, 1, 0.5]",lin,1,1,8,3,15,86,down,0.5,5.0,5.0,30,241.92782983299549,241.93448299999727,242.42289799999708,242.42289799999708,242.49686620799912,242.49686620799912,242.49686620799912,243.1609532079965,0,,,,,,,,,,,,,,,eli,0,2025-08-29_11h25.26.790,tilt_staircase,2024.2.4,None,2025-08-29 11h25.34.337792 -0400,
,,,0,0,0,,,,,,,,,,,,,,,,,,0,0,0,0,243.16858049999428,,,,,,,,,,,,,,,,,,,,,,,,,,,,,,,,,,,,,,,,,,,,,,,,,,,,,,,negc_noss,30,-15,15,-15,"[5, 2, 1, 0.5]",lin,1,1,8,4,15,87,up,0.5,0.5,0.5,,243.16200050000043,243.16858049999428,243.65628033299436,243.65628033299436,243.7293201249995,243.7293201249995,243.7293201249995,244.0172030829999,0,,,,,,,,,,,,,,,eli,0,2025-08-29_11h25.26.790,tilt_staircase,2024.2.4,None,2025-08-29 11h25.34.337792 -0400,
,,,0,0,0,,,,,,,,,,,,,,,,,,0,0,0,0,244.02292674999626,,,,,,,,,,,,,,,,,,,,,,,,,,,,,,,,,,,,,,,,,,,,,,,,,,,,,,,negc_poss,30,-15,15,-15,"[5, 2, 1, 0.5]",lin,1,1,8,2,15,88,up,0.5,2.0,2.0,30,244.01814845799527,244.02292674999626,244.51622829199914,244.51622829199914,244.59104454199405,244.59104454199405,244.59104454199405,245.0091135420007,0,,,,,,,,,,,,,,,eli,0,2025-08-29_11h25.26.790,tilt_staircase,2024.2.4,None,2025-08-29 11h25.34.337792 -0400,
,,,0,0,0,,,,,,,,,,,,,,,,,,0,0,0,0,245.016473124997,,,,,,,,,,,,,,,,,,,,,,,,,,,,,,,,,,,,,,,,,,,,,,,,,,,,,,,posc_noss,30,15,15,-15,"[5, 2, 1, 0.5]",lin,1,1,8,5,15,89,up,0.5,0.5,0.5,,245.01005279200035,245.016473124997,245.50624912499916,245.50624912499916,245.5781857080001,245.5781857080001,245.5781857080001,245.857181667001,0,,,,,,,,,,,,,,,eli,0,2025-08-29_11h25.26.790,tilt_staircase,2024.2.4,None,2025-08-29 11h25.34.337792 -0400,
,,,0,0,0,,,,,,,,,,,,,,,,,,0,0,0,0,245.86254545799602,,,,,,,,,,,,,,,,,,,,,,,,,,,,,,,,,,,,,,,,,,,,,,,,,,,,,,,posc_negs,30,15,15,-15,"[5, 2, 1, 0.5]",lin,1,1,8,1,16,90,up,1,-7,-7,-30,245.85814504199516,245.86254545799602,246.3487127499975,246.3487127499975,246.4239238329974,246.4239238329974,246.42955841699586,246.69067191700015,0,,,,,,,,,,,,,,,eli,0,2025-08-29_11h25.26.790,tilt_staircase,2024.2.4,None,2025-08-29 11h25.34.337792 -0400,
,,,0,0,0,,,,,,,,,,,,,,,,,,0,0,0,0,246.69596241699765,,,,,,,,,,,,,,,,,,,,,,,,,,,,,,,,,,,,,,,,,,,,,,,,,,,,,,,posc_noss,30,15,15,-15,"[5, 2, 1, 0.5]",lin,1,1,8,5,16,91,up,0.5,1.0,1.0,,246.69162258299912,246.69596241699765,247.18251433299884,247.18251433299884,247.25778008299676,247.25778008299676,247.26364112499868,247.61325683299947,0,,,,,,,,,,,,,,,eli,0,2025-08-29_11h25.26.790,tilt_staircase,2024.2.4,None,2025-08-29 11h25.34.337792 -0400,
,,,0,0,0,,,,,,,,,,,,,,,,,,0,0,0,0,247.62374908299535,,,,,,,,,,,,,,,,,,,,,,,,,,,,,,,,,,,,,,,,,,,,,,,,,,,,,,,negc_poss,30,-15,15,-15,"[5, 2, 1, 0.5]",lin,1,1,8,2,16,92,up,0.5,2.5,2.5,30,247.61419229199964,247.62374908299535,248.1149950830004,248.1149950830004,248.19066595799814,248.19066595799814,248.19066595799814,248.52648416699958,0,,,,,,,,,,,,,,,eli,0,2025-08-29_11h25.26.790,tilt_staircase,2024.2.4,None,2025-08-29 11h25.34.337792 -0400,
,,,0,0,0,,,,,,,,,,,,,,,,,,0,0,0,0,248.5347458749966,,,,,,,,,,,,,,,,,,,,,,,,,,,,,,,,,,,,,,,,,,,,,,,,,,,,,,,negc_negs,30,-15,15,-15,"[5, 2, 1, 0.5]",lin,1,1,8,0,16,93,down,0.5,-3.5,-3.5,-30,248.52778254199802,248.5347458749966,249.0228806669984,249.0228806669984,249.09773754199705,249.09773754199705,249.09773754199705,249.44828583299386,0,,,,,,,,,,,,,,,eli,0,2025-08-29_11h25.26.790,tilt_staircase,2024.2.4,None,2025-08-29 11h25.34.337792 -0400,
,,,0,0,0,,,,,,,,,,,,,,,,,,0,0,0,0,249.45598204199632,,,,,,,,,,,,,,,,,,,,,,,,,,,,,,,,,,,,,,,,,,,,,,,,,,,,,,,posc_poss,30,15,15,-15,"[5, 2, 1, 0.5]",lin,1,1,8,3,16,94,up,0.5,5.5,5.5,30,249.4492519169944,249.45598204199632,249.95035883299715,249.95035883299715,250.0242720419992,250.0242720419992,250.0242720419992,250.37626358299894,0,,,,,,,,,,,,,,,eli,0,2025-08-29_11h25.26.790,tilt_staircase,2024.2.4,None,2025-08-29 11h25.34.337792 -0400,
,,,0,0,0,,,,,,,,,,,,,,,,,,0,0,0,0,250.38448729199445,,,,,,,,,,,,,,,,,,,,,,,,,,,,,,,,,,,,,,,,,,,,,,,,,,,,,,,negc_noss,30,-15,15,-15,"[5, 2, 1, 0.5]",lin,1,1,8,4,16,95,up,0.5,1.0,1.0,,250.37743354199483,250.38448729199445,250.87328095799603,250.87328095799603,250.94689608299814,250.94689608299814,250.94689608299814,251.5602227079944,1,,,,,,,,,,,,,,,eli,0,2025-08-29_11h25.26.790,tilt_staircase,2024.2.4,None,2025-08-29 11h25.34.337792 -0400,
,,,0,0,0,,,,,,,,,,,,,,,,,,0,0,0,0,251.56894062499487,,,,,,,,,,,,,,,,,,,,,,,,,,,,,,,,,,,,,,,,,,,,,,,,,,,,,,,negc_noss,30,-15,15,-15,"[5, 2, 1, 0.5]",lin,1,1,8,4,17,96,down,0.5,0.5,0.5,,251.56184645799658,251.56894062499487,252.05622887500067,252.05622887500067,252.1308425419993,252.1308425419993,252.1308425419993,252.48569137499726,1,,,,,,,,,,,,,,,eli,0,2025-08-29_11h25.26.790,tilt_staircase,2024.2.4,None,2025-08-29 11h25.34.337792 -0400,
,,,0,0,0,,,,,,,,,,,,,,,,,,0,0,0,0,252.50734354199813,,,,,,,,,,,,,,,,,,,,,,,,,,,,,,,,,,,,,,,,,,,,,,,,,,,,,,,posc_poss,30,15,15,-15,"[5, 2, 1, 0.5]",lin,1,1,8,3,17,97,up,0.5,6.0,6.0,30,252.4867293329953,252.50734354199813,252.98022245799802,252.98022245799802,253.05789645799814,253.05789645799814,253.06372649999685,253.34241629199823,1,,,,,,,,,,,,,,,eli,0,2025-08-29_11h25.26.790,tilt_staircase,2024.2.4,None,2025-08-29 11h25.34.337792 -0400,
,,,0,0,0,,,,,,,,,,,,,,,,,,0,0,0,0,253.34964866699738,,,,,,,,,,,,,,,,,,,,,,,,,,,,,,,,,,,,,,,,,,,,,,,,,,,,,,,posc_negs,30,15,15,-15,"[5, 2, 1, 0.5]",lin,1,1,8,1,17,98,up,1,-6,-6,-30,253.3434652079959,253.34964866699738,253.83978795800067,253.83978795800067,253.91242041700025,253.91242041700025,253.91242041700025,254.27649891699548,1,,,,,,,,,,,,,,,eli,0,2025-08-29_11h25.26.790,tilt_staircase,2024.2.4,None,2025-08-29 11h25.34.337792 -0400,
,,,0,0,0,,,,,,,,,,,,,,,,,,0,0,0,0,254.28489708299458,,,,,,,,,,,,,,,,,,,,,,,,,,,,,,,,,,,,,,,,,,,,,,,,,,,,,,,posc_noss,30,15,15,-15,"[5, 2, 1, 0.5]",lin,1,1,8,5,17,99,up,0.5,1.5,1.5,,254.27760283299722,254.28489708299458,254.77296208299958,254.77296208299958,254.84737787499762,254.84737787499762,254.84737787499762,255.2320649999965,0,,,,,,,,,,,,,,,eli,0,2025-08-29_11h25.26.790,tilt_staircase,2024.2.4,None,2025-08-29 11h25.34.337792 -0400,
,,,0,0,0,,,,,,,,,,,,,,,,,,0,0,0,0,255.24010595800064,,,,,,,,,,,,,,,,,,,,,,,,,,,,,,,,,,,,,,,,,,,,,,,,,,,,,,,negc_negs,30,-15,15,-15,"[5, 2, 1, 0.5]",lin,1,1,8,0,17,100,up,0.5,-3.0,-3.0,-30,255.2332009169986,255.24010595800064,255.73286966700107,255.73286966700107,255.8075831249953,255.8075831249953,255.8075831249953,256.32609145799506,1,,,,,,,,,,,,,,,eli,0,2025-08-29_11h25.26.790,tilt_staircase,2024.2.4,None,2025-08-29 11h25.34.337792 -0400,
,,,0,0,0,,,,,,,,,,,,,,,,,,0,0,0,0,256.33437254199816,,,,,,,,,,,,,,,,,,,,,,,,,,,,,,,,,,,,,,,,,,,,,,,,,,,,,,,negc_poss,30,-15,15,-15,"[5, 2, 1, 0.5]",lin,1,1,8,2,17,101,up,0.5,3.0,3.0,30,256.327638499999,256.33437254199816,256.82302112499747,256.82302112499747,256.89748479199625,256.89748479199625,256.89748479199625,257.5099857919995,1,,,,,,,,,,,,,,,eli,0,2025-08-29_11h25.26.790,tilt_staircase,2024.2.4,None,2025-08-29 11h25.34.337792 -0400,
,,,0,0,0,,,,,,,,,,,,,,,,,,0,0,0,0,257.51796033299615,,,,,,,,,,,,,,,,,,,,,,,,,,,,,,,,,,,,,,,,,,,,,,,,,,,,,,,posc_poss,30,15,15,-15,"[5, 2, 1, 0.5]",lin,1,1,8,3,18,102,down,0.5,5.5,5.5,30,257.5110911669981,257.51796033299615,258.0068042079947,258.0068042079947,258.07917974999873,258.07917974999873,258.07917974999873,258.65982858299685,1,,,,,,,,,,,,,,,eli,0,2025-08-29_11h25.26.790,tilt_staircase,2024.2.4,None,2025-08-29 11h25.34.337792 -0400,
,,,0,0,0,,,,,,,,,,,,,,,,,,0,0,0,0,258.66756379199796,,,,,,,,,,,,,,,,,,,,,,,,,,,,,,,,,,,,,,,,,,,,,,,,,,,,,,,negc_negs,30,-15,15,-15,"[5, 2, 1, 0.5]",lin,1,1,8,0,18,103,down,0.5,-3.5,-3.5,-30,258.66089466699486,258.66756379199796,259.1568286249967,259.1568286249967,259.23035462499683,259.23035462499683,259.23035462499683,259.6505411670005,1,,,,,,,,,,,,,,,eli,0,2025-08-29_11h25.26.790,tilt_staircase,2024.2.4,None,2025-08-29 11h25.34.337792 -0400,
,,,0,0,0,,,,,,,,,,,,,,,,,,0,0,0,0,259.65610770799685,,,,,,,,,,,,,,,,,,,,,,,,,,,,,,,,,,,,,,,,,,,,,,,,,,,,,,,negc_poss,30,-15,15,-15,"[5, 2, 1, 0.5]",lin,1,1,8,2,18,104,down,0.5,2.5,2.5,30,259.6515358329998,259.65610770799685,260.1491341250003,260.1491341250003,260.223399333001,260.223399333001,260.223399333001,260.6340182499989,1,,,,,,,,,,,,,,,eli,0,2025-08-29_11h25.26.790,tilt_staircase,2024.2.4,None,2025-08-29 11h25.34.337792 -0400,
,,,0,0,0,,,,,,,,,,,,,,,,,,0,0,0,0,260.6395145829956,,,,,,,,,,,,,,,,,,,,,,,,,,,,,,,,,,,,,,,,,,,,,,,,,,,,,,,posc_negs,30,15,15,-15,"[5, 2, 1, 0.5]",lin,1,1,8,1,18,105,down,0.5,-6.5,-6.5,-30,260.6349127919966,260.6395145829956,261.1321860829994,261.1321860829994,261.20761066699924,261.20761066699924,261.2132554999989,261.9683292080008,0,,,,,,,,,,,,,,,eli,0,2025-08-29_11h25.26.790,tilt_staircase,2024.2.4,None,2025-08-29 11h25.34.337792 -0400,
,,,0,0,0,,,,,,,,,,,,,,,,,,0,0,0,0,261.9739763749967,,,,,,,,,,,,,,,,,,,,,,,,,,,,,,,,,,,,,,,,,,,,,,,,,,,,,,,posc_noss,30,15,15,-15,"[5, 2, 1, 0.5]",lin,1,1,8,5,18,106,up,0.5,2.0,2.0,,261.96939691699663,261.9739763749967,262.4636422919939,262.4636422919939,262.5398079999941,262.5398079999941,262.5398079999941,262.9431776669953,1,,,,,,,,,,,,,,,eli,0,2025-08-29_11h25.26.790,tilt_staircase,2024.2.4,None,2025-08-29 11h25.34.337792 -0400,
,,,0,0,0,,,,,,,,,,,,,,,,,,0,0,0,0,262.9516082919945,,,,,,,,,,,,,,,,,,,,,,,,,,,,,,,,,,,,,,,,,,,,,,,,,,,,,,,negc_noss,30,-15,15,-15,"[5, 2, 1, 0.5]",lin,1,1,8,4,18,107,down,0.5,0.0,0.0,,262.94440100000065,262.9516082919945,263.4787819999983,263.4787819999983,263.5576839579953,263.5576839579953,263.51049241700093,263.85947812499944,0,,,,,,,,,,,,,,,eli,0,2025-08-29_11h25.26.790,tilt_staircase,2024.2.4,None,2025-08-29 11h25.34.337792 -0400,
,,,0,0,0,,,,,,,,,,,,,,,,,,0,0,0,0,263.86791745799565,,,,,,,,,,,,,,,,,,,,,,,,,,,,,,,,,,,,,,,,,,,,,,,,,,,,,,,negc_poss,30,-15,15,-15,"[5, 2, 1, 0.5]",lin,1,1,8,2,19,108,down,0.5,2.0,2.0,30,263.860697832999,263.86791745799565,264.3561589999954,264.3561589999954,264.43003966700053,264.43003966700053,264.43003966700053,264.72798616699583,1,,,,,,,,,,,,,,,eli,0,2025-08-29_11h25.26.790,tilt_staircase,2024.2.4,None,2025-08-29 11h25.34.337792 -0400,
,,,0,0,0,,,,,,,,,,,,,,,,,,0,0,0,0,264.736216958001,,,,,,,,,,,,,,,,,,,,,,,,,,,,,,,,,,,,,,,,,,,,,,,,,,,,,,,negc_noss,30,-15,15,-15,"[5, 2, 1, 0.5]",lin,1,1,8,4,19,109,up,0.5,0.5,0.5,,264.72913420799887,264.736216958001,265.22332749999623,265.22332749999623,265.2967022919984,265.2967022919984,265.2967022919984,265.5597532920001,0,,,,,,,,,,,,,,,eli,0,2025-08-29_11h25.26.790,tilt_staircase,2024.2.4,None,2025-08-29 11h25.34.337792 -0400,
,,,0,0,0,,,,,,,,,,,,,,,,,,0,0,0,0,265.56823829199857,,,,,,,,,,,,,,,,,,,,,,,,,,,,,,,,,,,,,,,,,,,,,,,,,,,,,,,posc_negs,30,15,15,-15,"[5, 2, 1, 0.5]",lin,1,1,8,1,19,110,up,0.5,-6.0,-6.0,-30,265.5615394999986,265.56823829199857,266.05694504200073,266.05694504200073,266.12812349999876,266.12812349999876,266.12812349999876,266.54245366699615,1,,,,,,,,,,,,,,,eli,0,2025-08-29_11h25.26.790,tilt_staircase,2024.2.4,None,2025-08-29 11h25.34.337792 -0400,
,,,0,0,0,,,,,,,,,,,,,,,,,,0,0,0,0,266.5525344579946,,,,,,,,,,,,,,,,,,,,,,,,,,,,,,,,,,,,,,,,,,,,,,,,,,,,,,,negc_negs,30,-15,15,-15,"[5, 2, 1, 0.5]",lin,1,1,8,0,19,111,down,0.5,-4.0,-4.0,-30,266.54543808299786,266.5525344579946,267.03958645799867,267.03958645799867,267.11329587499495,267.11329587499495,267.11329587499495,267.3591209579972,0,,,,,,,,,,,,,,,eli,0,2025-08-29_11h25.26.790,tilt_staircase,2024.2.4,None,2025-08-29 11h25.34.337792 -0400,
,,,0,0,0,,,,,,,,,,,,,,,,,,0,0,0,0,267.3667205829988,,,,,,,,,,,,,,,,,,,,,,,,,,,,,,,,,,,,,,,,,,,,,,,,,,,,,,,posc_poss,30,15,15,-15,"[5, 2, 1, 0.5]",lin,1,1,8,3,19,112,down,0.5,5.0,5.0,30,267.3601101669992,267.3667205829988,267.8562116249959,267.8562116249959,267.9285027500009,267.9285027500009,267.9285027500009,268.42479579199426,0,,,,,,,,,,,,,,,eli,0,2025-08-29_11h25.26.790,tilt_staircase,2024.2.4,None,2025-08-29 11h25.34.337792 -0400,
,,,0,0,0,,,,,,,,,,,,,,,,,,0,0,0,0,268.4305112919974,,,,,,,,,,,,,,,,,,,,,,,,,,,,,,,,,,,,,,,,,,,,,,,,,,,,,,,posc_noss,30,15,15,-15,"[5, 2, 1, 0.5]",lin,1,1,8,5,19,113,down,0.5,1.5,1.5,,268.4253459579995,268.4305112919974,268.9135766249965,268.9135766249965,268.9897312920002,268.9897312920002,268.9942135829988,269.39129124999454,0,,,,,,,,,,,,,,,eli,0,2025-08-29_11h25.26.790,tilt_staircase,2024.2.4,None,2025-08-29 11h25.34.337792 -0400,
,,,0,0,0,,,,,,,,,,,,,,,,,,0,0,0,0,269.39674374999595,,,,,,,,,,,,,,,,,,,,,,,,,,,,,,,,,,,,,,,,,,,,,,,,,,,,,,,negc_noss,30,-15,15,-15,"[5, 2, 1, 0.5]",lin,1,1,8,4,20,114,up,0.5,1.0,1.0,,269.39184558299894,269.39674374999595,269.88205062499765,269.88205062499765,269.95792337499734,269.95792337499734,269.964160042,270.2747219169978,1,,,,,,,,,,,,,,,eli,0,2025-08-29_11h25.26.790,tilt_staircase,2024.2.4,None,2025-08-29 11h25.34.337792 -0400,
,,,0,0,0,,,,,,,,,,,,,,,,,,0,0,0,0,270.28069712499564,,,,,,,,,,,,,,,,,,,,,,,,,,,,,,,,,,,,,,,,,,,,,,,,,,,,,,,posc_poss,30,15,15,-15,"[5, 2, 1, 0.5]",lin,1,1,8,3,20,115,up,0.5,5.5,5.5,30,270.27534141700016,270.28069712499564,270.7732412499972,270.7732412499972,270.84579895799834,270.84579895799834,270.84579895799834,271.24097829200036,0,,,,,,,,,,,,,,,eli,0,2025-08-29_11h25.26.790,tilt_staircase,2024.2.4,None,2025-08-29 11h25.34.337792 -0400,
,,,0,0,0,,,,,,,,,,,,,,,,,,0,0,0,0,271.24553749999905,,,,,,,,,,,,,,,,,,,,,,,,,,,,,,,,,,,,,,,,,,,,,,,,,,,,,,,posc_negs,30,15,15,-15,"[5, 2, 1, 0.5]",lin,1,1,8,1,20,116,down,0.5,-6.5,-6.5,-30,271.24142904199834,271.24553749999905,271.73346870800015,271.73346870800015,271.807539292,271.807539292,271.81379658299556,272.1592787499976,0,,,,,,,,,,,,,,,eli,0,2025-08-29_11h25.26.790,tilt_staircase,2024.2.4,None,2025-08-29 11h25.34.337792 -0400,
,,,0,0,0,,,,,,,,,,,,,,,,,,0,0,0,0,272.16756470799737,,,,,,,,,,,,,,,,,,,,,,,,,,,,,,,,,,,,,,,,,,,,,,,,,,,,,,,posc_noss,30,15,15,-15,"[5, 2, 1, 0.5]",lin,1,1,8,5,20,117,up,0.5,2.0,2.0,,272.160377041997,272.16756470799737,272.65626033299486,272.65626033299486,272.7305494579996,272.7305494579996,272.7305494579996,273.0100762919974,0,,,,,,,,,,,,,,,eli,0,2025-08-29_11h25.26.790,tilt_staircase,2024.2.4,None,2025-08-29 11h25.34.337792 -0400,
,,,0,0,0,,,,,,,,,,,,,,,,,,0,0,0,0,273.018060041999,,,,,,,,,,,,,,,,,,,,,,,,,,,,,,,,,,,,,,,,,,,,,,,,,,,,,,,negc_poss,30,-15,15,-15,"[5, 2, 1, 0.5]",lin,1,1,8,2,20,118,down,0.5,1.5,1.5,30,273.0113519999941,273.018060041999,273.5063380829961,273.5063380829961,273.58125045799534,273.58125045799534,273.58125045799534,273.88188641699526,1,,,,,,,,,,,,,,,eli,0,2025-08-29_11h25.26.790,tilt_staircase,2024.2.4,None,2025-08-29 11h25.34.337792 -0400,
,,,0,0,0,,,,,,,,,,,,,,,,,,0,0,0,0,273.88965616699716,,,,,,,,,,,,,,,,,,,,,,,,,,,,,,,,,,,,,,,,,,,,,,,,,,,,,,,negc_negs,30,-15,15,-15,"[5, 2, 1, 0.5]",lin,1,1,8,0,20,119,up,0.5,-3.5,-3.5,-30,273.88287216699973,273.88965616699716,274.38269862499874,274.38269862499874,274.45767729199724,274.45767729199724,274.45767729199724,274.85006408299523,1,,,,,,,,,,,,,,,eli,0,2025-08-29_11h25.26.790,tilt_staircase,2024.2.4,None,2025-08-29 11h25.34.337792 -0400,
,,,0,0,0,,,,,,,,,,,,,,,,,,0,0,0,0,274.8561137919969,,,,,,,,,,,,,,,,,,,,,,,,,,,,,,,,,,,,,,,,,,,,,,,,,,,,,,,negc_noss,30,-15,15,-15,"[5, 2, 1, 0.5]",lin,1,1,8,4,21,120,down,0.5,0.5,0.5,,274.8510199579978,274.8561137919969,275.34980574999645,275.34980574999645,275.42385524999554,275.42385524999554,275.42385524999554,275.8263738329988,1,,,,,,,,,,,,,,,eli,0,2025-08-29_11h25.26.790,tilt_staircase,2024.2.4,None,2025-08-29 11h25.34.337792 -0400,
,,,0,0,0,,,,,,,,,,,,,,,,,,0,0,0,0,275.8343707919994,,,,,,,,,,,,,,,,,,,,,,,,,,,,,,,,,,,,,,,,,,,,,,,,,,,,,,,negc_negs,30,-15,15,-15,"[5, 2, 1, 0.5]",lin,1,1,8,0,21,121,down,0.5,-4.0,-4.0,-30,275.82766812499904,275.8343707919994,276.32283254199865,276.32283254199865,276.39621491699654,276.39621491699654,276.39621491699654,276.8838089579949,0,,,,,,,,,,,,,,,eli,0,2025-08-29_11h25.26.790,tilt_staircase,2024.2.4,None,2025-08-29 11h25.34.337792 -0400,
,,,0,0,0,,,,,,,,,,,,,,,,,,0,0,0,0,276.889267999999,,,,,,,,,,,,,,,,,,,,,,,,,,,,,,,,,,,,,,,,,,,,,,,,,,,,,,,posc_noss,30,15,15,-15,"[5, 2, 1, 0.5]",lin,1,1,8,5,21,122,up,0.5,2.5,2.5,,276.88476633299433,276.889267999999,277.3827510419942,277.3827510419942,277.45738729200093,277.45738729200093,277.45738729200093,277.8599278749971,0,,,,,,,,,,,,,,,eli,0,2025-08-29_11h25.26.790,tilt_staircase,2024.2.4,None,2025-08-29 11h25.34.337792 -0400,
,,,0,0,0,,,,,,,,,,,,,,,,,,0,0,0,0,277.86821570799657,,,,,,,,,,,,,,,,,,,,,,,,,,,,,,,,,,,,,,,,,,,,,,,,,,,,,,,negc_poss,30,-15,15,-15,"[5, 2, 1, 0.5]",lin,1,1,8,2,21,123,down,0.5,1.0,1.0,30,277.8612146249943,277.86821570799657,278.35612987499917,278.35612987499917,278.43018350000057,278.43018350000057,278.43018350000057,278.81731595799647,1,,,,,,,,,,,,,,,eli,0,2025-08-29_11h25.26.790,tilt_staircase,2024.2.4,None,2025-08-29 11h25.34.337792 -0400,
,,,0,0,0,,,,,,,,,,,,,,,,,,0,0,0,0,278.822765082994,,,,,,,,,,,,,,,,,,,,,,,,,,,,,,,,,,,,,,,,,,,,,,,,,,,,,,,posc_poss,30,15,15,-15,"[5, 2, 1, 0.5]",lin,1,1,8,3,21,124,up,0.5,6.0,6.0,30,278.81825074999506,278.822765082994,279.3160914580003,279.3160914580003,279.3906135829966,279.3906135829966,279.3906135829966,280.0275842919946,1,,,,,,,,,,,,,,,eli,0,2025-08-29_11h25.26.790,tilt_staircase,2024.2.4,None,2025-08-29 11h25.34.337792 -0400,
,,,0,0,0,,,,,,,,,,,,,,,,,,0,0,0,0,280.036127667001,,,,,,,,,,,,,,,,,,,,,,,,,,,,,,,,,,,,,,,,,,,,,,,,,,,,,,,posc_negs,30,15,15,-15,"[5, 2, 1, 0.5]",lin,1,1,8,1,21,125,up,0.5,-6.0,-6.0,-30,280.02877749999607,280.036127667001,280.5228833750007,280.5228833750007,280.59541137499764,280.59541137499764,280.59541137499764,281.12728808300017,0,,,,,,,,,,,,,,,eli,0,2025-08-29_11h25.26.790,tilt_staircase,2024.2.4,None,2025-08-29 11h25.34.337792 -0400,
,,,0,0,0,,,,,,,,,,,,,,,,,,0,0,0,0,281.1408410419972,,,,,,,,,,,,,,,,,,,,,,,,,,,,,,,,,,,,,,,,,,,,,,,,,,,,,,,posc_negs,30,15,15,-15,"[5, 2, 1, 0.5]",lin,1,1,8,1,22,126,up,0.5,-5.5,-5.5,-30,281.12940929199976,281.1408410419972,281.6228541249948,281.6228541249948,281.6964456669957,281.6964456669957,281.6964456669957,282.2305858330001,0,,,,,,,,,,,,,,,eli,0,2025-08-29_11h25.26.790,tilt_staircase,2024.2.4,None,2025-08-29 11h25.34.337792 -0400,
,,,0,0,0,,,,,,,,,,,,,,,,,,0,0,0,0,282.23939679199975,,,,,,,,,,,,,,,,,,,,,,,,,,,,,,,,,,,,,,,,,,,,,,,,,,,,,,,negc_noss,30,-15,15,-15,"[5, 2, 1, 0.5]",lin,1,1,8,4,22,127,down,0.5,0.0,0.0,,282.2316815419981,282.23939679199975,282.73350329199457,282.73350329199457,282.80712649999623,282.80712649999623,282.80712649999623,283.40943395799695,0,,,,,,,,,,,,,,,eli,0,2025-08-29_11h25.26.790,tilt_staircase,2024.2.4,None,2025-08-29 11h25.34.337792 -0400,
,,,0,0,0,,,,,,,,,,,,,,,,,,0,0,0,0,283.4171628330005,,,,,,,,,,,,,,,,,,,,,,,,,,,,,,,,,,,,,,,,,,,,,,,,,,,,,,,posc_poss,30,15,15,-15,"[5, 2, 1, 0.5]",lin,1,1,8,3,22,128,down,0.5,5.5,5.5,30,283.4104700829994,283.4171628330005,283.90713395799685,283.90713395799685,283.9801873749966,283.9801873749966,283.9801873749966,284.4151497079947,0,,,,,,,,,,,,,,,eli,0,2025-08-29_11h25.26.790,tilt_staircase,2024.2.4,None,2025-08-29 11h25.34.337792 -0400,
,,,0,0,0,,,,,,,,,,,,,,,,,,0,0,0,0,284.4232367919976,,,,,,,,,,,,,,,,,,,,,,,,,,,,,,,,,,,,,,,,,,,,,,,,,,,,,,,negc_negs,30,-15,15,-15,"[5, 2, 1, 0.5]",lin,1,1,8,0,22,129,up,0.5,-3.5,-3.5,-30,284.4162648329948,284.4232367919976,284.91534016699734,284.91534016699734,284.99083037499804,284.99083037499804,284.99083037499804,285.4928884580004,0,,,,,,,,,,,,,,,eli,0,2025-08-29_11h25.26.790,tilt_staircase,2024.2.4,None,2025-08-29 11h25.34.337792 -0400,
,,,0,0,0,,,,,,,,,,,,,,,,,,0,0,0,0,285.5006667919952,,,,,,,,,,,,,,,,,,,,,,,,,,,,,,,,,,,,,,,,,,,,,,,,,,,,,,,negc_poss,30,-15,15,-15,"[5, 2, 1, 0.5]",lin,1,1,8,2,22,130,down,0.5,0.5,0.5,30,285.49412362499424,285.5006667919952,285.9894915420009,285.9894915420009,286.0634288329966,286.0634288329966,286.0634288329966,286.70934475000104,0,,,,,,,,,,,,,,,eli,0,2025-08-29_11h25.26.790,tilt_staircase,2024.2.4,None,2025-08-29 11h25.34.337792 -0400,
,,,0,0,0,,,,,,,,,,,,,,,,,,0,0,0,0,286.7169615419989,,,,,,,,,,,,,,,,,,,,,,,,,,,,,,,,,,,,,,,,,,,,,,,,,,,,,,,posc_noss,30,15,15,-15,"[5, 2, 1, 0.5]",lin,1,1,8,5,22,131,up,0.5,3.0,3.0,,286.71034599999984,286.7169615419989,287.2067374170001,287.2067374170001,287.28050929199526,287.28050929199526,287.28050929199526,289.05995287499536,0,,,,,,,,,,,,,,,eli,0,2025-08-29_11h25.26.790,tilt_staircase,2024.2.4,None,2025-08-29 11h25.34.337792 -0400,
,,,0,0,0,,,,,,,,,,,,,,,,,,0,0,0,0,289.0685442920003,,,,,,,,,,,,,,,,,,,,,,,,,,,,,,,,,,,,,,,,,,,,,,,,,,,,,,,negc_negs,30,-15,15,-15,"[5, 2, 1, 0.5]",lin,1,1,8,0,23,132,up,0.5,-3.0,-3.0,-30,289.0613447919968,289.0685442920003,289.55707491700014,289.55707491700014,289.62812116699934,289.62812116699934,289.62812116699934,290.47640837499785,1,,,,,,,,,,,,,,,eli,0,2025-08-29_11h25.26.790,tilt_staircase,2024.2.4,None,2025-08-29 11h25.34.337792 -0400,
,,,0,0,0,,,,,,,,,,,,,,,,,,0,0,0,0,290.4850934579954,,,,,,,,,,,,,,,,,,,,,,,,,,,,,,,,,,,,,,,,,,,,,,,,,,,,,,,posc_poss,30,15,15,-15,"[5, 2, 1, 0.5]",lin,1,1,8,3,23,133,up,0.5,6.0,6.0,30,290.47813224999845,290.4850934579954,290.9744764579955,290.9744764579955,291.0469757079991,291.0469757079991,291.0469757079991,291.65973983299773,1,,,,,,,,,,,,,,,eli,0,2025-08-29_11h25.26.790,tilt_staircase,2024.2.4,None,2025-08-29 11h25.34.337792 -0400,
,,,0,0,0,,,,,,,,,,,,,,,,,,0,0,0,0,291.6677055420005,,,,,,,,,,,,,,,,,,,,,,,,,,,,,,,,,,,,,,,,,,,,,,,,,,,,,,,posc_noss,30,15,15,-15,"[5, 2, 1, 0.5]",lin,1,1,8,5,23,134,up,0.5,3.5,3.5,,291.66083554199577,291.6677055420005,292.15619437499845,292.15619437499845,292.2306318749979,292.2306318749979,292.2306318749979,292.74298366699804,1,,,,,,,,,,,,,,,eli,0,2025-08-29_11h25.26.790,tilt_staircase,2024.2.4,None,2025-08-29 11h25.34.337792 -0400,
,,,0,0,0,,,,,,,,,,,,,,,,,,0,0,0,0,292.75087983299454,,,,,,,,,,,,,,,,,,,,,,,,,,,,,,,,,,,,,,,,,,,,,,,,,,,,,,,posc_negs,30,15,15,-15,"[5, 2, 1, 0.5]",lin,1,1,8,1,23,135,up,0.5,-5.0,-5.0,-30,292.7441881669947,292.75087983299454,293.23970245799865,293.23970245799865,293.313330332996,293.313330332996,293.313330332996,293.77651524999965,0,,,,,,,,,,,,,,,eli,0,2025-08-29_11h25.26.790,tilt_staircase,2024.2.4,None,2025-08-29 11h25.34.337792 -0400,
,,,0,0,0,,,,,,,,,,,,,,,,,,0,0,0,0,293.784150624997,,,,,,,,,,,,,,,,,,,,,,,,,,,,,,,,,,,,,,,,,,,,,,,,,,,,,,,negc_poss,30,-15,15,-15,"[5, 2, 1, 0.5]",lin,1,1,8,2,23,136,up,0.5,1.0,1.0,30,293.77757429199846,293.784150624997,294.2742660829972,294.2742660829972,294.3466779579976,294.3466779579976,294.3466779579976,294.89295395799854,0,,,,,,,,,,,,,,,eli,0,2025-08-29_11h25.26.790,tilt_staircase,2024.2.4,None,2025-08-29 11h25.34.337792 -0400,
,,,0,0,0,,,,,,,,,,,,,,,,,,0,0,0,0,294.9012310420003,,,,,,,,,,,,,,,,,,,,,,,,,,,,,,,,,,,,,,,,,,,,,,,,,,,,,,,negc_noss,30,-15,15,-15,"[5, 2, 1, 0.5]",lin,1,1,8,4,23,137,up,0.5,0.5,0.5,,294.89467324999714,294.9012310420003,295.3895222499996,295.3895222499996,295.46336245799466,295.46336245799466,295.46336245799466,296.00711529199907,0,,,,,,,,,,,,,,,eli,0,2025-08-29_11h25.26.790,tilt_staircase,2024.2.4,None,2025-08-29 11h25.34.337792 -0400,
,,,0,0,0,,,,,,,,,,,,,,,,,,0,0,0,0,296.012588957994,,,,,,,,,,,,,,,,,,,,,,,,,,,,,,,,,,,,,,,,,,,,,,,,,,,,,,,negc_poss,30,-15,15,-15,"[5, 2, 1, 0.5]",lin,1,1,8,2,24,138,up,0.5,1.5,1.5,30,296.00810666699545,296.012588957994,296.4997338749963,296.4997338749963,296.57417704199906,296.57417704199906,296.58068099999946,297.00976958299725,0,,,,,,,,,,,,,,,eli,0,2025-08-29_11h25.26.790,tilt_staircase,2024.2.4,None,2025-08-29 11h25.34.337792 -0400,
,,,0,0,0,,,,,,,,,,,,,,,,,,0,0,0,0,297.01760120799736,,,,,,,,,,,,,,,,,,,,,,,,,,,,,,,,,,,,,,,,,,,,,,,,,,,,,,,posc_negs,30,15,15,-15,"[5, 2, 1, 0.5]",lin,1,1,8,1,24,139,up,0.5,-4.5,-4.5,-30,297.01083745799406,297.01760120799736,297.50662024999474,297.50662024999474,297.58056470799784,297.58056470799784,297.58056470799784,297.90965320800024,0,,,,,,,,,,,,,,,eli,0,2025-08-29_11h25.26.790,tilt_staircase,2024.2.4,None,2025-08-29 11h25.34.337792 -0400,
,,,0,0,0,,,,,,,,,,,,,,,,,,0,0,0,0,297.9174202919967,,,,,,,,,,,,,,,,,,,,,,,,,,,,,,,,,,,,,,,,,,,,,,,,,,,,,,,negc_noss,30,-15,15,-15,"[5, 2, 1, 0.5]",lin,1,1,8,4,24,140,up,0.5,1.0,1.0,,297.9108007920004,297.9174202919967,298.40611516699573,298.40611516699573,298.47959908299526,298.47959908299526,298.47959908299526,298.8764163329979,0,,,,,,,,,,,,,,,eli,0,2025-08-29_11h25.26.790,tilt_staircase,2024.2.4,None,2025-08-29 11h25.34.337792 -0400,
,,,0,0,0,,,,,,,,,,,,,,,,,,0,0,0,0,298.8855332079984,,,,,,,,,,,,,,,,,,,,,,,,,,,,,,,,,,,,,,,,,,,,,,,,,,,,,,,posc_poss,30,15,15,-15,"[5, 2, 1, 0.5]",lin,1,1,8,3,24,141,down,0.5,5.5,5.5,30,298.87808524999855,298.8855332079984,299.3727741670009,299.3727741670009,299.44692658299755,299.44692658299755,299.44692658299755,300.1756685829969,0,,,,,,,,,,,,,,,eli,0,2025-08-29_11h25.26.790,tilt_staircase,2024.2.4,None,2025-08-29 11h25.34.337792 -0400,
,,,0,0,0,,,,,,,,,,,,,,,,,,0,0,0,0,300.18346870799724,,,,,,,,,,,,,,,,,,,,,,,,,,,,,,,,,,,,,,,,,,,,,,,,,,,,,,,negc_negs,30,-15,15,-15,"[5, 2, 1, 0.5]",lin,1,1,8,0,24,142,down,0.5,-3.5,-3.5,-30,300.1767988329957,300.18346870799724,300.6727169579972,300.6727169579972,300.747092957994,300.747092957994,300.747092957994,301.56109241699596,0,,,,,,,,,,,,,,,eli,0,2025-08-29_11h25.26.790,tilt_staircase,2024.2.4,None,2025-08-29 11h25.34.337792 -0400,
,,,0,0,0,,,,,,,,,,,,,,,,,,0,0,0,0,301.56978470800095,,,,,,,,,,,,,,,,,,,,,,,,,,,,,,,,,,,,,,,,,,,,,,,,,,,,,,,posc_noss,30,15,15,-15,"[5, 2, 1, 0.5]",lin,1,1,8,5,24,143,down,0.5,3.0,3.0,,301.5623186249941,301.56978470800095,302.0564149999991,302.0564149999991,302.130277749995,302.130277749995,302.130277749995,302.817451416995,0,,,,,,,,,,,,,,,eli,0,2025-08-29_11h25.26.790,tilt_staircase,2024.2.4,None,2025-08-29 11h25.34.337792 -0400,
,,,0,0,0,,,,,,,,,,,,,,,,,,0,0,0,0,302.8231130829954,,,,,,,,,,,,,,,,,,,,,,,,,,,,,,,,,,,,,,,,,,,,,,,,,,,,,,,posc_negs,30,15,15,-15,"[5, 2, 1, 0.5]",lin,1,1,8,1,25,144,up,0.5,-4.0,-4.0,-30,302.8184590419987,302.8231130829954,303.315959749998,303.315959749998,303.3904357079955,303.3904357079955,303.3904357079955,304.0093716249976,1,,,,,,,,,,,,,,,eli,0,2025-08-29_11h25.26.790,tilt_staircase,2024.2.4,None,2025-08-29 11h25.34.337792 -0400,
,,,0,0,0,,,,,,,,,,,,,,,,,,0,0,0,0,304.01731549999386,,,,,,,,,,,,,,,,,,,,,,,,,,,,,,,,,,,,,,,,,,,,,,,,,,,,,,,negc_noss,30,-15,15,-15,"[5, 2, 1, 0.5]",lin,1,1,8,4,25,145,up,0.5,1.5,1.5,,304.0104306249996,304.01731549999386,304.50613604200043,304.50613604200043,304.5812219579966,304.5812219579966,304.5812219579966,305.0106697919982,0,,,,,,,,,,,,,,,eli,0,2025-08-29_11h25.26.790,tilt_staircase,2024.2.4,None,2025-08-29 11h25.34.337792 -0400,
,,,0,0,0,,,,,,,,,,,,,,,,,,0,0,0,0,305.0186014169958,,,,,,,,,,,,,,,,,,,,,,,,,,,,,,,,,,,,,,,,,,,,,,,,,,,,,,,posc_noss,30,15,15,-15,"[5, 2, 1, 0.5]",lin,1,1,8,5,25,146,up,0.5,3.5,3.5,,305.01192383300076,305.0186014169958,305.50611491699965,305.50611491699965,305.5811252499989,305.5811252499989,305.5811252499989,305.89225912499387,1,,,,,,,,,,,,,,,eli,0,2025-08-29_11h25.26.790,tilt_staircase,2024.2.4,None,2025-08-29 11h25.34.337792 -0400,
,,,0,0,0,,,,,,,,,,,,,,,,,,0,0,0,0,305.8995804169972,,,,,,,,,,,,,,,,,,,,,,,,,,,,,,,,,,,,,,,,,,,,,,,,,,,,,,,negc_poss,30,-15,15,-15,"[5, 2, 1, 0.5]",lin,1,1,8,2,25,147,up,0.5,2.0,2.0,30,305.89328033299535,305.8995804169972,306.38955241700023,306.38955241700023,306.46381004199793,306.46381004199793,306.46381004199793,306.7738860419995,0,,,,,,,,,,,,,,,eli,0,2025-08-29_11h25.26.790,tilt_staircase,2024.2.4,None,2025-08-29 11h25.34.337792 -0400,
,,,0,0,0,,,,,,,,,,,,,,,,,,0,0,0,0,306.77914416699787,,,,,,,,,,,,,,,,,,,,,,,,,,,,,,,,,,,,,,,,,,,,,,,,,,,,,,,posc_poss,30,15,15,-15,"[5, 2, 1, 0.5]",lin,1,1,8,3,25,148,up,0.5,6.0,6.0,30,306.77483166699676,306.77914416699787,307.26674662499863,307.26674662499863,307.3409073329967,307.3409073329967,307.3472122079984,307.66789129199606,1,,,,,,,,,,,,,,,eli,0,2025-08-29_11h25.26.790,tilt_staircase,2024.2.4,None,2025-08-29 11h25.34.337792 -0400,
,,,0,0,0,,,,,,,,,,,,,,,,,,0,0,0,0,307.67328933299723,,,,,,,,,,,,,,,,,,,,,,,,,,,,,,,,,,,,,,,,,,,,,,,,,,,,,,,negc_negs,30,-15,15,-15,"[5, 2, 1, 0.5]",lin,1,1,8,0,25,149,up,0.5,-3.0,-3.0,-30,307.66888249999465,307.67328933299723,308.166027457999,308.166027457999,308.2409220829941,308.2409220829941,308.2409220829941,308.57580666699505,0,,,,,,,,,,,,,,,eli,0,2025-08-29_11h25.26.790,tilt_staircase,2024.2.4,None,2025-08-29 11h25.34.337792 -0400,
,,,0,0,0,,,,,,,,,,,,,,,,,,0,0,0,0,308.5832912499973,,,,,,,,,,,,,,,,,,,,,,,,,,,,,,,,,,,,,,,,,,,,,,,,,,,,,,,posc_negs,30,15,15,-15,"[5, 2, 1, 0.5]",lin,1,1,8,1,26,150,down,0.5,-4.5,-4.5,-30,308.5767898749982,308.5832912499973,309.0735480000003,309.0735480000003,309.1461692499943,309.1461692499943,309.1461692499943,309.53787004199694,1,,,,,,,,,,,,,,,eli,0,2025-08-29_11h25.26.790,tilt_staircase,2024.2.4,None,2025-08-29 11h25.34.337792 -0400,
,,,0,0,0,,,,,,,,,,,,,,,,,,0,0,0,0,309.5433314999973,,,,,,,,,,,,,,,,,,,,,,,,,,,,,,,,,,,,,,,,,,,,,,,,,,,,,,,negc_poss,30,-15,15,-15,"[5, 2, 1, 0.5]",lin,1,1,8,2,26,151,up,0.5,2.5,2.5,30,309.5387973329998,309.5433314999973,310.03273691699724,310.03273691699724,310.1075187499955,310.1075187499955,310.112962332998,310.46757966699806,0,,,,,,,,,,,,,,,eli,0,2025-08-29_11h25.26.790,tilt_staircase,2024.2.4,None,2025-08-29 11h25.34.337792 -0400,
,,,0,0,0,,,,,,,,,,,,,,,,,,0,0,0,0,310.47332508299587,,,,,,,,,,,,,,,,,,,,,,,,,,,,,,,,,,,,,,,,,,,,,,,,,,,,,,,posc_negs,30,15,15,-15,"[5, 2, 1, 0.5]",lin,1,1,8,1,27,152,down,0.5,-5.0,-5.0,-30,310.4686764579965,310.47332508299587,310.9649436670006,310.9649436670006,311.04044362499553,311.04044362499553,311.04044362499553,311.4301004999943,1,,,,,,,,,,,,,,,eli,0,2025-08-29_11h25.26.790,tilt_staircase,2024.2.4,None,2025-08-29 11h25.34.337792 -0400,
,,,0,0,0,,,,,,,,,,,,,,,,,,0,0,0,0,311.4394328329945,,,,,,,,,,,,,,,,,,,,,,,,,,,,,,,,,,,,,,,,,,,,,,,,,,,,,,,negc_poss,30,-15,15,-15,"[5, 2, 1, 0.5]",lin,1,1,8,2,27,153,up,0.5,3.0,3.0,30,311.43103908299963,311.4394328329945,311.92293154199433,311.92293154199433,311.9963268329957,311.9963268329957,312.00764291700034,312.59315308299847,0,,,,,,,,,,,,,,,eli,0,2025-08-29_11h25.26.790,tilt_staircase,2024.2.4,None,2025-08-29 11h25.34.337792 -0400,
,,,0,0,0,,,,,,,,,,,,,,,,,,0,0,0,0,312.601620333,,,,,,,,,,,,,,,,,,,,,,,,,,,,,,,,,,,,,,,,,,,,,,,,,,,,,,,negc_poss,30,-15,15,-15,"[5, 2, 1, 0.5]",lin,1,1,8,2,28,154,up,0.5,3.5,3.5,30,312.59441308299574,312.601620333,313.09000629199727,313.09000629199727,313.16373545799433,313.16373545799433,313.16373545799433,313.5473325829953,1,,,,,,,,,,,,,,,eli,0,2025-08-29_11h25.26.790,tilt_staircase,2024.2.4,None,2025-08-29 11h25.34.337792 -0400,
,,,0,0,0,,,,,,,,,,,,,,,,,,0,0,0,0,313.5560157919972,,,,,,,,,,,,,,,,,,,,,,,,,,,,,,,,,,,,,,,,,,,,,,,,,,,,,,,posc_negs,30,15,15,-15,"[5, 2, 1, 0.5]",lin,1,1,8,1,28,155,down,0.5,-5.5,-5.5,-30,313.5483158749994,313.5560157919972,314.03940899999725,314.03940899999725,314.1122172499963,314.1122172499963,314.12414124999486,314.4754618329971,0,,,,,,,,,,,,,,,eli,0,2025-08-29_11h25.26.790,tilt_staircase,2024.2.4,None,2025-08-29 11h25.34.337792 -0400,
,,,0,0,0,,,,,,,,,,,,,,,,,,0,0,0,0,314.4832244999998,,,,,,,,,,,,,,,,,,,,,,,,,,,,,,,,,,,,,,,,,,,,,,,,,,,,,,,negc_poss,30,-15,15,-15,"[5, 2, 1, 0.5]",lin,1,1,8,2,29,156,down,0.5,3.0,3.0,30,314.476783291997,314.4832244999998,314.9727314579941,314.9727314579941,315.04443883299973,315.04443883299973,315.04443883299973,315.5605097919979,1,,,,,,,,,,,,,,,eli,0,2025-08-29_11h25.26.790,tilt_staircase,2024.2.4,None,2025-08-29 11h25.34.337792 -0400,
,,,0,0,0,,,,,,,,,,,,,,,,,,0,0,0,0,315.5683129169993,,,,,,,,,,,,,,,,,,,,,,,,,,,,,,,,,,,,,,,,,,,,,,,,,,,,,,,negc_poss,30,-15,15,-15,"[5, 2, 1, 0.5]",lin,1,1,8,2,30,157,down,0.5,2.5,2.5,30,315.56160391699814,315.5683129169993,316.0571883329976,316.0571883329976,316.1296663329995,316.1296663329995,316.1296663329995,316.55874554199545,0,,,,,,,,,,,,,,,eli,0,2025-08-29_11h25.26.790,tilt_staircase,2024.2.4,None,2025-08-29 11h25.34.337792 -0400,
,,,0,0,0,,,,,,,,,,,,,,,,,,0,0,0,0,316.56620658299653,,,,,,,,,,,,,,,,,,,,,,,,,,,,,,,,,,,,,,,,,,,,,,,,,,,,,,,negc_poss,30,-15,15,-15,"[5, 2, 1, 0.5]",lin,1,1,8,2,31,158,up,0.5,3.0,3.0,30,316.55970283299393,316.56620658299653,317.05656499999895,317.05656499999895,317.12996624999505,317.12996624999505,317.12996624999505,317.46739991699724,1,,,,,,,,,,,,,,,eli,0,2025-08-29_11h25.26.790,tilt_staircase,2024.2.4,None,2025-08-29 11h25.34.337792 -0400,
,,,1,0,1,,,,,,,,,,,,,,,,,,1,0,1,0,319.08787662499526,,,,,,,,,,,,,,,,,,,,,,,,,,,,,,,,,,,,,,,,,,,,,,,,,,,,,,,negc_negs,30,-15,15,-15,"[5, 2, 1, 0.5]",lin,1,1,8,0,1,0,start,5,-15,-15,-30,319.0794118749982,319.08787662499526,319.56629833299667,319.56629833299667,319.640435082998,319.640435082998,319.640435082998,319.9460096670009,0,317.46755187500094,317.47401537499536,317.47401537499536,319.06518970799516,space,1.5862813749990892,None,,,,,,,,eli,0,2025-08-29_11h25.26.790,tilt_staircase,2024.2.4,None,2025-08-29 11h25.34.337792 -0400,
,,,1,0,1,,,,,,,,,,,,,,,,,,1,0,1,0,319.956646832994,,,,,,,,,,,,,,,,,,,,,,,,,,,,,,,,,,,,,,,,,,,,,,,,,,,,,,,negc_noss,30,-15,15,-15,"[5, 2, 1, 0.5]",lin,1,1,8,4,1,1,start,5,-15,-15,,319.94707733299583,319.956646832994,320.439863874999,320.439863874999,320.5130661250005,320.5130661250005,320.5240664169978,320.6928842079942,1,,,,,,,,,,,,,,,eli,0,2025-08-29_11h25.26.790,tilt_staircase,2024.2.4,None,2025-08-29 11h25.34.337792 -0400,
,,,1,0,1,,,,,,,,,,,,,,,,,,1,0,1,0,320.70079149999947,,,,,,,,,,,,,,,,,,,,,,,,,,,,,,,,,,,,,,,,,,,,,,,,,,,,,,,posc_poss,30,15,15,-15,"[5, 2, 1, 0.5]",lin,1,1,8,3,1,2,start,5,15,15,30,320.694170499999,320.70079149999947,321.1893867079998,321.1893867079998,321.26362308299576,321.26362308299576,321.26362308299576,321.4925917079963,0,,,,,,,,,,,,,,,eli,0,2025-08-29_11h25.26.790,tilt_staircase,2024.2.4,None,2025-08-29 11h25.34.337792 -0400,
,,,1,0,1,,,,,,,,,,,,,,,,,,1,0,1,0,321.5006884579998,,,,,,,,,,,,,,,,,,,,,,,,,,,,,,,,,,,,,,,,,,,,,,,,,,,,,,,posc_noss,30,15,15,-15,"[5, 2, 1, 0.5]",lin,1,1,8,5,1,3,start,5,15,15,,321.49391512500006,321.5006884579998,321.9893752499993,321.9893752499993,322.06410433299607,322.06410433299607,322.06410433299607,322.6152705419954,1,,,,,,,,,,,,,,,eli,0,2025-08-29_11h25.26.790,tilt_staircase,2024.2.4,None,2025-08-29 11h25.34.337792 -0400,
,,,1,0,1,,,,,,,,,,,,,,,,,,1,0,1,0,322.6232062919953,,,,,,,,,,,,,,,,,,,,,,,,,,,,,,,,,,,,,,,,,,,,,,,,,,,,,,,posc_negs,30,15,15,-15,"[5, 2, 1, 0.5]",lin,1,1,8,1,1,4,start,5,15,15,-30,322.6163867919968,322.6232062919953,323.1157329999987,323.1157329999987,323.19041829199705,323.19041829199705,323.19041829199705,323.63146741699893,1,,,,,,,,,,,,,,,eli,0,2025-08-29_11h25.26.790,tilt_staircase,2024.2.4,None,2025-08-29 11h25.34.337792 -0400,
,,,1,0,1,,,,,,,,,,,,,,,,,,1,0,1,0,323.6392852499994,,,,,,,,,,,,,,,,,,,,,,,,,,,,,,,,,,,,,,,,,,,,,,,,,,,,,,,negc_poss,30,-15,15,-15,"[5, 2, 1, 0.5]",lin,1,1,8,2,1,5,start,5,-15,-15,30,323.63244275000034,323.6392852499994,324.1343171249973,324.1343171249973,324.2136223329944,324.2136223329944,324.2075730419965,324.67561641700013,0,,,,,,,,,,,,,,,eli,0,2025-08-29_11h25.26.790,tilt_staircase,2024.2.4,None,2025-08-29 11h25.34.337792 -0400,
,,,1,0,1,,,,,,,,,,,,,,,,,,1,0,1,0,324.6837051249968,,,,,,,,,,,,,,,,,,,,,,,,,,,,,,,,,,,,,,,,,,,,,,,,,,,,,,,negc_poss,30,-15,15,-15,"[5, 2, 1, 0.5]",lin,1,1,8,2,2,6,up,5,-10,-10,30,324.6770288330008,324.6837051249968,325.1727344999963,325.1727344999963,325.2476317499968,325.2476317499968,325.2476317499968,325.6594627499944,0,,,,,,,,,,,,,,,eli,0,2025-08-29_11h25.26.790,tilt_staircase,2024.2.4,None,2025-08-29 11h25.34.337792 -0400,
,,,1,0,1,,,,,,,,,,,,,,,,,,1,0,1,0,325.66735625,,,,,,,,,,,,,,,,,,,,,,,,,,,,,,,,,,,,,,,,,,,,,,,,,,,,,,,posc_noss,30,15,15,-15,"[5, 2, 1, 0.5]",lin,1,1,8,5,2,7,down,5,10,10,,325.6606239169996,325.66735625,326.15683370799525,326.15683370799525,326.2306966670003,326.2306966670003,326.2306966670003,326.6178309169991,1,,,,,,,,,,,,,,,eli,0,2025-08-29_11h25.26.790,tilt_staircase,2024.2.4,None,2025-08-29 11h25.34.337792 -0400,
,,,1,0,1,,,,,,,,,,,,,,,,,,1,0,1,0,326.62352549999923,,,,,,,,,,,,,,,,,,,,,,,,,,,,,,,,,,,,,,,,,,,,,,,,,,,,,,,posc_poss,30,15,15,-15,"[5, 2, 1, 0.5]",lin,1,1,8,3,2,8,up,5,15,15,30,326.6188109579962,326.62352549999923,327.1157275000005,327.1157275000005,327.1904279169976,327.1904279169976,327.1904279169976,327.6762952919962,1,,,,,,,,,,,,,,,eli,0,2025-08-29_11h25.26.790,tilt_staircase,2024.2.4,None,2025-08-29 11h25.34.337792 -0400,
,,,1,0,1,,,,,,,,,,,,,,,,,,1,0,1,0,327.68486549999943,,,,,,,,,,,,,,,,,,,,,,,,,,,,,,,,,,,,,,,,,,,,,,,,,,,,,,,negc_noss,30,-15,15,-15,"[5, 2, 1, 0.5]",lin,1,1,8,4,2,9,down,5,-15,-15,,327.67801833299745,327.68486549999943,328.17336008299753,328.17336008299753,328.24685012499685,328.24685012499685,328.24685012499685,328.59281912499864,0,,,,,,,,,,,,,,,eli,0,2025-08-29_11h25.26.790,tilt_staircase,2024.2.4,None,2025-08-29 11h25.34.337792 -0400,
,,,1,0,1,,,,,,,,,,,,,,,,,,1,0,1,0,328.6008566669989,,,,,,,,,,,,,,,,,,,,,,,,,,,,,,,,,,,,,,,,,,,,,,,,,,,,,,,posc_negs,30,15,15,-15,"[5, 2, 1, 0.5]",lin,1,1,8,1,2,10,down,5,10,10,-30,328.59423158299614,328.6008566669989,329.09030987499864,329.09030987499864,329.1636314169955,329.1636314169955,329.1636314169955,329.51490199999535,1,,,,,,,,,,,,,,,eli,0,2025-08-29_11h25.26.790,tilt_staircase,2024.2.4,None,2025-08-29 11h25.34.337792 -0400,
,,,1,0,1,,,,,,,,,,,,,,,,,,1,0,1,0,329.5223750829973,,,,,,,,,,,,,,,,,,,,,,,,,,,,,,,,,,,,,,,,,,,,,,,,,,,,,,,negc_negs,30,-15,15,-15,"[5, 2, 1, 0.5]",lin,1,1,8,0,2,11,up,5,-10,-10,-30,329.51589216700086,329.5223750829973,330.0159254579994,330.0159254579994,330.0899792919954,330.0899792919954,330.0899792919954,330.4248341249986,0,,,,,,,,,,,,,,,eli,0,2025-08-29_11h25.26.790,tilt_staircase,2024.2.4,None,2025-08-29 11h25.34.337792 -0400,
,,,1,0,1,,,,,,,,,,,,,,,,,,1,0,1,0,330.4323577920004,,,,,,,,,,,,,,,,,,,,,,,,,,,,,,,,,,,,,,,,,,,,,,,,,,,,,,,negc_negs,30,-15,15,-15,"[5, 2, 1, 0.5]",lin,1,1,8,0,3,12,up,5,-5,-5,-30,330.425793041999,330.4323577920004,330.9174962920006,330.9174962920006,330.99068733299646,330.99068733299646,330.99663679199875,331.37633979199745,1,,,,,,,,,,,,,,,eli,0,2025-08-29_11h25.26.790,tilt_staircase,2024.2.4,None,2025-08-29 11h25.34.337792 -0400,
,,,1,0,1,,,,,,,,,,,,,,,,,,1,0,1,0,331.3848034170005,,,,,,,,,,,,,,,,,,,,,,,,,,,,,,,,,,,,,,,,,,,,,,,,,,,,,,,negc_poss,30,-15,15,-15,"[5, 2, 1, 0.5]",lin,1,1,8,2,3,13,up,5,-5,-5,30,331.3779994169963,331.3848034170005,331.8729468329984,331.8729468329984,331.9465037080008,331.9465037080008,331.9465037080008,332.24786499999755,0,,,,,,,,,,,,,,,eli,0,2025-08-29_11h25.26.790,tilt_staircase,2024.2.4,None,2025-08-29 11h25.34.337792 -0400,
,,,1,0,1,,,,,,,,,,,,,,,,,,1,0,1,0,332.2561537079964,,,,,,,,,,,,,,,,,,,,,,,,,,,,,,,,,,,,,,,,,,,,,,,,,,,,,,,negc_noss,30,-15,15,-15,"[5, 2, 1, 0.5]",lin,1,1,8,4,3,14,up,2,-13,-13,,332.24894883299567,332.2561537079964,332.7491665829948,332.7491665829948,332.8241381669941,332.8241381669941,332.8241381669941,333.1427494169984,1,,,,,,,,,,,,,,,eli,0,2025-08-29_11h25.26.790,tilt_staircase,2024.2.4,None,2025-08-29 11h25.34.337792 -0400,
,,,1,0,1,,,,,,,,,,,,,,,,,,1,0,1,0,333.1505725419993,,,,,,,,,,,,,,,,,,,,,,,,,,,,,,,,,,,,,,,,,,,,,,,,,,,,,,,posc_noss,30,15,15,-15,"[5, 2, 1, 0.5]",lin,1,1,8,5,3,15,down,5,5,5,,333.14394333299424,333.1505725419993,333.63964679199853,333.63964679199853,333.71363949999795,333.71363949999795,333.71363949999795,334.7264402919973,1,,,,,,,,,,,,,,,eli,0,2025-08-29_11h25.26.790,tilt_staircase,2024.2.4,None,2025-08-29 11h25.34.337792 -0400,
,,,1,0,1,,,,,,,,,,,,,,,,,,1,0,1,0,334.7355536670002,,,,,,,,,,,,,,,,,,,,,,,,,,,,,,,,,,,,,,,,,,,,,,,,,,,,,,,posc_negs,30,15,15,-15,"[5, 2, 1, 0.5]",lin,1,1,8,1,3,16,down,5,5,5,-30,334.7283743329972,334.7355536670002,335.22312766699906,335.22312766699906,335.2954177079955,335.2954177079955,335.2954177079955,335.6470989169975,1,,,,,,,,,,,,,,,eli,0,2025-08-29_11h25.26.790,tilt_staircase,2024.2.4,None,2025-08-29 11h25.34.337792 -0400,
,,,1,0,1,,,,,,,,,,,,,,,,,,1,0,1,0,335.65603604199714,,,,,,,,,,,,,,,,,,,,,,,,,,,,,,,,,,,,,,,,,,,,,,,,,,,,,,,posc_poss,30,15,15,-15,"[5, 2, 1, 0.5]",lin,1,1,8,3,3,17,down,2,13,13,30,335.6483048749942,335.65603604199714,336.13928725000005,336.13928725000005,336.2127547919954,336.2127547919954,336.22408249999717,336.54209220799385,1,,,,,,,,,,,,,,,eli,0,2025-08-29_11h25.26.790,tilt_staircase,2024.2.4,None,2025-08-29 11h25.34.337792 -0400,
,,,1,0,1,,,,,,,,,,,,,,,,,,1,0,1,0,336.5496771670005,,,,,,,,,,,,,,,,,,,,,,,,,,,,,,,,,,,,,,,,,,,,,,,,,,,,,,,negc_poss,30,-15,15,-15,"[5, 2, 1, 0.5]",lin,1,1,8,2,4,18,up,5,0,0,30,336.5430692919981,336.5496771670005,337.039320625001,337.039320625001,337.11329087500053,337.11329087500053,337.11329087500053,337.5134512079967,0,,,,,,,,,,,,,,,eli,0,2025-08-29_11h25.26.790,tilt_staircase,2024.2.4,None,2025-08-29 11h25.34.337792 -0400,
,,,1,0,1,,,,,,,,,,,,,,,,,,1,0,1,0,337.5226562079988,,,,,,,,,,,,,,,,,,,,,,,,,,,,,,,,,,,,,,,,,,,,,,,,,,,,,,,posc_noss,30,15,15,-15,"[5, 2, 1, 0.5]",lin,1,1,8,5,4,19,down,5,0,0,,337.51460454199696,337.5226562079988,338.0062310419962,338.0062310419962,338.0796667079994,338.0796667079994,338.09042429200053,338.4485202079959,1,,,,,,,,,,,,,,,eli,0,2025-08-29_11h25.26.790,tilt_staircase,2024.2.4,None,2025-08-29 11h25.34.337792 -0400,
,,,1,0,1,,,,,,,,,,,,,,,,,,1,0,1,0,338.45703474999755,,,,,,,,,,,,,,,,,,,,,,,,,,,,,,,,,,,,,,,,,,,,,,,,,,,,,,,negc_noss,30,-15,15,-15,"[5, 2, 1, 0.5]",lin,1,1,8,4,4,20,down,1,-14,-14,,338.44961104200047,338.45703474999755,338.9499494999982,338.9499494999982,339.0241798749994,339.0241798749994,339.0241798749994,339.43012516699673,0,,,,,,,,,,,,,,,eli,0,2025-08-29_11h25.26.790,tilt_staircase,2024.2.4,None,2025-08-29 11h25.34.337792 -0400,
,,,1,0,1,,,,,,,,,,,,,,,,,,1,0,1,0,339.4392972499991,,,,,,,,,,,,,,,,,,,,,,,,,,,,,,,,,,,,,,,,,,,,,,,,,,,,,,,posc_negs,30,15,15,-15,"[5, 2, 1, 0.5]",lin,1,1,8,1,4,21,down,5,0,0,-30,339.4311003749972,339.4392972499991,339.9226700829968,339.9226700829968,339.9964017079983,339.9964017079983,340.0071696669984,340.365718999994,1,,,,,,,,,,,,,,,eli,0,2025-08-29_11h25.26.790,tilt_staircase,2024.2.4,None,2025-08-29 11h25.34.337792 -0400,
,,,1,0,1,,,,,,,,,,,,,,,,,,1,0,1,0,340.3738669999948,,,,,,,,,,,,,,,,,,,,,,,,,,,,,,,,,,,,,,,,,,,,,,,,,,,,,,,negc_negs,30,-15,15,-15,"[5, 2, 1, 0.5]",lin,1,1,8,0,4,22,down,2,-7,-7,-30,340.3668589999943,340.3738669999948,340.8655547919989,340.8655547919989,340.94027387499955,340.94027387499955,340.94027387499955,341.2481765419943,0,,,,,,,,,,,,,,,eli,0,2025-08-29_11h25.26.790,tilt_staircase,2024.2.4,None,2025-08-29 11h25.34.337792 -0400,
,,,1,0,1,,,,,,,,,,,,,,,,,,1,0,1,0,341.25609829199675,,,,,,,,,,,,,,,,,,,,,,,,,,,,,,,,,,,,,,,,,,,,,,,,,,,,,,,posc_poss,30,15,15,-15,"[5, 2, 1, 0.5]",lin,1,1,8,3,4,23,down,2,11,11,30,341.2491636249979,341.25609829199675,341.74889083299786,341.74889083299786,341.82367325000087,341.82367325000087,341.82367325000087,342.0762606249991,1,,,,,,,,,,,,,,,eli,0,2025-08-29_11h25.26.790,tilt_staircase,2024.2.4,None,2025-08-29 11h25.34.337792 -0400,
,,,1,0,1,,,,,,,,,,,,,,,,,,1,0,1,0,342.0844380419949,,,,,,,,,,,,,,,,,,,,,,,,,,,,,,,,,,,,,,,,,,,,,,,,,,,,,,,negc_noss,30,-15,15,-15,"[5, 2, 1, 0.5]",lin,1,1,8,4,5,24,up,0.5,-13.5,-13.5,,342.0779241669952,342.0844380419949,342.5730079999994,342.5730079999994,342.64585370799614,342.64585370799614,342.64585370799614,342.86531891699997,0,,,,,,,,,,,,,,,eli,0,2025-08-29_11h25.26.790,tilt_staircase,2024.2.4,None,2025-08-29 11h25.34.337792 -0400,
,,,1,0,1,,,,,,,,,,,,,,,,,,1,0,1,0,342.8731901669962,,,,,,,,,,,,,,,,,,,,,,,,,,,,,,,,,,,,,,,,,,,,,,,,,,,,,,,posc_poss,30,15,15,-15,"[5, 2, 1, 0.5]",lin,1,1,8,3,5,25,down,2,9,9,30,342.8663722919955,342.8731901669962,343.3661957919976,343.3661957919976,343.44090845799656,343.44090845799656,343.44090845799656,343.70070974999544,1,,,,,,,,,,,,,,,eli,0,2025-08-29_11h25.26.790,tilt_staircase,2024.2.4,None,2025-08-29 11h25.34.337792 -0400,
,,,1,0,1,,,,,,,,,,,,,,,,,,1,0,1,0,343.70632595799543,,,,,,,,,,,,,,,,,,,,,,,,,,,,,,,,,,,,,,,,,,,,,,,,,,,,,,,negc_poss,30,-15,15,-15,"[5, 2, 1, 0.5]",lin,1,1,8,2,5,26,up,5,5,5,30,343.70171104199835,343.70632595799543,344.1983623329943,344.1983623329943,344.27400037500047,344.27400037500047,344.2799172919986,344.49281649999466,0,,,,,,,,,,,,,,,eli,0,2025-08-29_11h25.26.790,tilt_staircase,2024.2.4,None,2025-08-29 11h25.34.337792 -0400,
,,,1,0,1,,,,,,,,,,,,,,,,,,1,0,1,0,344.5008322079957,,,,,,,,,,,,,,,,,,,,,,,,,,,,,,,,,,,,,,,,,,,,,,,,,,,,,,,negc_negs,30,-15,15,-15,"[5, 2, 1, 0.5]",lin,1,1,8,0,5,27,up,1,-6,-6,-30,344.4942700419997,344.5008322079957,344.9895775420009,344.9895775420009,345.0633406249981,345.0633406249981,345.0633406249981,345.23147649999737,1,,,,,,,,,,,,,,,eli,0,2025-08-29_11h25.26.790,tilt_staircase,2024.2.4,None,2025-08-29 11h25.34.337792 -0400,
,,,1,0,1,,,,,,,,,,,,,,,,,,1,0,1,0,345.23947591699834,,,,,,,,,,,,,,,,,,,,,,,,,,,,,,,,,,,,,,,,,,,,,,,,,,,,,,,posc_negs,30,15,15,-15,"[5, 2, 1, 0.5]",lin,1,1,8,1,5,28,down,5,-5,-5,-30,345.23245837499417,345.23947591699834,345.7326755419999,345.7326755419999,345.8074142080004,345.8074142080004,345.8074142080004,345.976096624996,0,,,,,,,,,,,,,,,eli,0,2025-08-29_11h25.26.790,tilt_staircase,2024.2.4,None,2025-08-29 11h25.34.337792 -0400,
,,,1,0,1,,,,,,,,,,,,,,,,,,1,0,1,0,345.98405374999857,,,,,,,,,,,,,,,,,,,,,,,,,,,,,,,,,,,,,,,,,,,,,,,,,,,,,,,posc_noss,30,15,15,-15,"[5, 2, 1, 0.5]",lin,1,1,8,5,5,29,down,5,-5,-5,,345.9774420419999,345.98405374999857,346.4730781670005,346.4730781670005,346.54661874999874,346.54661874999874,346.54661874999874,346.74345766699844,1,,,,,,,,,,,,,,,eli,0,2025-08-29_11h25.26.790,tilt_staircase,2024.2.4,None,2025-08-29 11h25.34.337792 -0400,
,,,1,0,1,,,,,,,,,,,,,,,,,,1,0,1,0,346.75086491699767,,,,,,,,,,,,,,,,,,,,,,,,,,,,,,,,,,,,,,,,,,,,,,,,,,,,,,,posc_noss,30,15,15,-15,"[5, 2, 1, 0.5]",lin,1,1,8,5,6,30,down,5,-10,-10,,346.74449074999575,346.75086491699767,347.2393994169979,347.2393994169979,347.31407883299835,347.31407883299835,347.31407883299835,347.5093807919984,0,,,,,,,,,,,,,,,eli,0,2025-08-29_11h25.26.790,tilt_staircase,2024.2.4,None,2025-08-29 11h25.34.337792 -0400,
,,,1,0,1,,,,,,,,,,,,,,,,,,1,0,1,0,347.5165989579982,,,,,,,,,,,,,,,,,,,,,,,,,,,,,,,,,,,,,,,,,,,,,,,,,,,,,,,posc_negs,30,15,15,-15,"[5, 2, 1, 0.5]",lin,1,1,8,1,6,31,up,2,-3,-3,-30,347.5103589999999,347.5165989579982,348.0059648749957,348.0059648749957,348.07900399999926,348.07900399999926,348.07900399999926,348.25951941699896,1,,,,,,,,,,,,,,,eli,0,2025-08-29_11h25.26.790,tilt_staircase,2024.2.4,None,2025-08-29 11h25.34.337792 -0400,
,,,1,0,1,,,,,,,,,,,,,,,,,,1,0,1,0,348.2667667919959,,,,,,,,,,,,,,,,,,,,,,,,,,,,,,,,,,,,,,,,,,,,,,,,,,,,,,,negc_noss,30,-15,15,-15,"[5, 2, 1, 0.5]",lin,1,1,8,4,6,32,up,0.5,-13.0,-13.0,,348.2605086249969,348.2667667919959,348.75597091699456,348.75597091699456,348.83012095799495,348.83012095799495,348.83012095799495,349.01458174999425,0,,,,,,,,,,,,,,,eli,0,2025-08-29_11h25.26.790,tilt_staircase,2024.2.4,None,2025-08-29 11h25.34.337792 -0400,
,,,1,0,1,,,,,,,,,,,,,,,,,,1,0,1,0,349.0227851669988,,,,,,,,,,,,,,,,,,,,,,,,,,,,,,,,,,,,,,,,,,,,,,,,,,,,,,,negc_poss,30,-15,15,-15,"[5, 2, 1, 0.5]",lin,1,1,8,2,6,33,up,5,10,10,30,349.01567129199975,349.0227851669988,349.51538054199773,349.51538054199773,349.5907259579981,349.5907259579981,349.5907259579981,349.78162724999856,1,,,,,,,,,,,,,,,eli,0,2025-08-29_11h25.26.790,tilt_staircase,2024.2.4,None,2025-08-29 11h25.34.337792 -0400,
,,,1,0,1,,,,,,,,,,,,,,,,,,1,0,1,0,349.78938558299706,,,,,,,,,,,,,,,,,,,,,,,,,,,,,,,,,,,,,,,,,,,,,,,,,,,,,,,posc_poss,30,15,15,-15,"[5, 2, 1, 0.5]",lin,1,1,8,3,6,34,down,2,7,7,30,349.7826124579951,349.78938558299706,350.28313904199604,350.28313904199604,350.35746975000075,350.35746975000075,350.35746975000075,350.54598579199956,0,,,,,,,,,,,,,,,eli,0,2025-08-29_11h25.26.790,tilt_staircase,2024.2.4,None,2025-08-29 11h25.34.337792 -0400,
,,,1,0,1,,,,,,,,,,,,,,,,,,1,0,1,0,350.5570996669994,,,,,,,,,,,,,,,,,,,,,,,,,,,,,,,,,,,,,,,,,,,,,,,,,,,,,,,negc_negs,30,-15,15,-15,"[5, 2, 1, 0.5]",lin,1,1,8,0,6,35,down,0.5,-6.5,-6.5,-30,350.546917666994,350.5570996669994,351.040262292001,351.040262292001,351.1105904579963,351.1105904579963,351.12406137499784,351.30946883299475,1,,,,,,,,,,,,,,,eli,0,2025-08-29_11h25.26.790,tilt_staircase,2024.2.4,None,2025-08-29 11h25.34.337792 -0400,
,,,1,0,1,,,,,,,,,,,,,,,,,,1,0,1,0,351.3173005419958,,,,,,,,,,,,,,,,,,,,,,,,,,,,,,,,,,,,,,,,,,,,,,,,,,,,,,,posc_poss,30,15,15,-15,"[5, 2, 1, 0.5]",lin,1,1,8,3,7,36,up,1,8,8,30,351.31064404199424,351.3173005419958,351.8060257499965,351.8060257499965,351.8800571669999,351.8800571669999,351.8800571669999,352.09283458299615,0,,,,,,,,,,,,,,,eli,0,2025-08-29_11h25.26.790,tilt_staircase,2024.2.4,None,2025-08-29 11h25.34.337792 -0400,
,,,1,0,1,,,,,,,,,,,,,,,,,,1,0,1,0,352.1006820420007,,,,,,,,,,,,,,,,,,,,,,,,,,,,,,,,,,,,,,,,,,,,,,,,,,,,,,,posc_negs,30,15,15,-15,"[5, 2, 1, 0.5]",lin,1,1,8,1,7,37,down,1,-4,-4,-30,352.0942949169985,352.1006820420007,352.5893769579998,352.5893769579998,352.6635102079963,352.6635102079963,352.6635102079963,352.9487199579962,1,,,,,,,,,,,,,,,eli,0,2025-08-29_11h25.26.790,tilt_staircase,2024.2.4,None,2025-08-29 11h25.34.337792 -0400,
,,,1,0,1,,,,,,,,,,,,,,,,,,1,0,1,0,352.95639404199756,,,,,,,,,,,,,,,,,,,,,,,,,,,,,,,,,,,,,,,,,,,,,,,,,,,,,,,negc_negs,30,-15,15,-15,"[5, 2, 1, 0.5]",lin,1,1,8,0,7,38,down,0.5,-7.0,-7.0,-30,352.94971470799646,352.95639404199756,353.4491375419966,353.4491375419966,353.52362575000006,353.52362575000006,353.52362575000006,353.7082729169997,0,,,,,,,,,,,,,,,eli,0,2025-08-29_11h25.26.790,tilt_staircase,2024.2.4,None,2025-08-29 11h25.34.337792 -0400,
,,,1,0,1,,,,,,,,,,,,,,,,,,1,0,1,0,353.71569341699796,,,,,,,,,,,,,,,,,,,,,,,,,,,,,,,,,,,,,,,,,,,,,,,,,,,,,,,posc_noss,30,15,15,-15,"[5, 2, 1, 0.5]",lin,1,1,8,5,7,39,up,2,-8,-8,,353.70919462500024,353.71569341699796,354.206295457996,354.206295457996,354.2805928749949,354.2805928749949,354.2805928749949,354.44249058299465,1,,,,,,,,,,,,,,,eli,0,2025-08-29_11h25.26.790,tilt_staircase,2024.2.4,None,2025-08-29 11h25.34.337792 -0400,
,,,1,0,1,,,,,,,,,,,,,,,,,,1,0,1,0,354.4507224580011,,,,,,,,,,,,,,,,,,,,,,,,,,,,,,,,,,,,,,,,,,,,,,,,,,,,,,,negc_noss,30,-15,15,-15,"[5, 2, 1, 0.5]",lin,1,1,8,4,7,40,up,0.5,-12.5,-12.5,,354.4441103749996,354.4507224580011,354.9393157919985,354.9393157919985,355.01344954199885,355.01344954199885,355.01344954199885,355.22444574999827,0,,,,,,,,,,,,,,,eli,0,2025-08-29_11h25.26.790,tilt_staircase,2024.2.4,None,2025-08-29 11h25.34.337792 -0400,
,,,1,0,1,,,,,,,,,,,,,,,,,,1,0,1,0,355.2296567499943,,,,,,,,,,,,,,,,,,,,,,,,,,,,,,,,,,,,,,,,,,,,,,,,,,,,,,,negc_poss,30,-15,15,-15,"[5, 2, 1, 0.5]",lin,1,1,8,2,7,41,down,2,8,8,30,355.224969582996,355.2296567499943,355.71603162500105,355.71603162500105,355.7906473749972,355.7906473749972,355.79664445799426,356.01528091699583,1,,,,,,,,,,,,,,,eli,0,2025-08-29_11h25.26.790,tilt_staircase,2024.2.4,None,2025-08-29 11h25.34.337792 -0400,
,,,1,0,1,,,,,,,,,,,,,,,,,,1,0,1,0,356.0237824579963,,,,,,,,,,,,,,,,,,,,,,,,,,,,,,,,,,,,,,,,,,,,,,,,,,,,,,,posc_negs,30,15,15,-15,"[5, 2, 1, 0.5]",lin,1,1,8,1,8,42,down,1,-5,-5,-30,356.01641637499415,356.0237824579963,356.5167972499985,356.5167972499985,356.5903891249982,356.5903891249982,356.5903891249982,356.7459614170002,0,,,,,,,,,,,,,,,eli,0,2025-08-29_11h25.26.790,tilt_staircase,2024.2.4,None,2025-08-29 11h25.34.337792 -0400,
,,,1,0,1,,,,,,,,,,,,,,,,,,1,0,1,0,356.7564339169985,,,,,,,,,,,,,,,,,,,,,,,,,,,,,,,,,,,,,,,,,,,,,,,,,,,,,,,posc_noss,30,15,15,-15,"[5, 2, 1, 0.5]",lin,1,1,8,5,8,43,down,1,-9,-9,,356.7470581669986,356.7564339169985,357.23929095799394,357.23929095799394,357.31317124999623,357.31317124999623,357.324125207997,357.5491699579943,1,,,,,,,,,,,,,,,eli,0,2025-08-29_11h25.26.790,tilt_staircase,2024.2.4,None,2025-08-29 11h25.34.337792 -0400,
,,,1,0,1,,,,,,,,,,,,,,,,,,1,0,1,0,357.5568074170005,,,,,,,,,,,,,,,,,,,,,,,,,,,,,,,,,,,,,,,,,,,,,,,,,,,,,,,negc_poss,30,-15,15,-15,"[5, 2, 1, 0.5]",lin,1,1,8,2,8,44,down,2,6,6,30,357.5501719579988,357.5568074170005,358.04846458300017,358.04846458300017,358.1241631669982,358.1241631669982,358.1299126669983,358.77476383299654,1,,,,,,,,,,,,,,,eli,0,2025-08-29_11h25.26.790,tilt_staircase,2024.2.4,None,2025-08-29 11h25.34.337792 -0400,
,,,1,0,1,,,,,,,,,,,,,,,,,,1,0,1,0,358.7824302079971,,,,,,,,,,,,,,,,,,,,,,,,,,,,,,,,,,,,,,,,,,,,,,,,,,,,,,,negc_noss,30,-15,15,-15,"[5, 2, 1, 0.5]",lin,1,1,8,4,8,45,up,0.5,-12.0,-12.0,,358.7757089999941,358.7824302079971,359.26586370799487,359.26586370799487,359.3407744169963,359.3407744169963,359.34732899999653,359.6648392079951,0,,,,,,,,,,,,,,,eli,0,2025-08-29_11h25.26.790,tilt_staircase,2024.2.4,None,2025-08-29 11h25.34.337792 -0400,
,,,1,0,1,,,,,,,,,,,,,,,,,,1,0,1,0,359.67267662499944,,,,,,,,,,,,,,,,,,,,,,,,,,,,,,,,,,,,,,,,,,,,,,,,,,,,,,,posc_poss,30,15,15,-15,"[5, 2, 1, 0.5]",lin,1,1,8,3,8,46,up,1,9,9,30,359.6657806250005,359.67267662499944,360.16611129199737,360.16611129199737,360.24008274999505,360.24008274999505,360.24008274999505,360.68358545799856,1,,,,,,,,,,,,,,,eli,0,2025-08-29_11h25.26.790,tilt_staircase,2024.2.4,None,2025-08-29 11h25.34.337792 -0400,
,,,1,0,1,,,,,,,,,,,,,,,,,,1,0,1,0,360.68930533299863,,,,,,,,,,,,,,,,,,,,,,,,,,,,,,,,,,,,,,,,,,,,,,,,,,,,,,,negc_negs,30,-15,15,-15,"[5, 2, 1, 0.5]",lin,1,1,8,0,8,47,up,0.5,-6.5,-6.5,-30,360.68456708300073,360.68930533299863,361.18210341699887,361.18210341699887,361.2572694999981,361.2572694999981,361.2572694999981,361.55964945799496,0,,,,,,,,,,,,,,,eli,0,2025-08-29_11h25.26.790,tilt_staircase,2024.2.4,None,2025-08-29 11h25.34.337792 -0400,
,,,1,0,1,,,,,,,,,,,,,,,,,,1,0,1,0,361.5672874169977,,,,,,,,,,,,,,,,,,,,,,,,,,,,,,,,,,,,,,,,,,,,,,,,,,,,,,,posc_poss,30,15,15,-15,"[5, 2, 1, 0.5]",lin,1,1,8,3,9,48,down,0.5,8.5,8.5,30,361.56069479199505,361.5672874169977,362.056213166994,362.056213166994,362.1298306249955,362.1298306249955,362.1298306249955,362.5761425829987,1,,,,,,,,,,,,,,,eli,0,2025-08-29_11h25.26.790,tilt_staircase,2024.2.4,None,2025-08-29 11h25.34.337792 -0400,
