center,surround,correct,opacity,practice_no_time.thisRepN,practice_no_time.thisTrialN,practice_no_time.thisN,practice_no_time.thisIndex,practice_timed.thisRepN,practice_timed.thisTrialN,practice_timed.thisN,practice_timed.thisIndex,blocks.thisRepN,blocks.thisTrialN,blocks.thisN,blocks.thisIndex,thisRow.t,notes,instr.started,text_5.started,key_resp_2.started,instr.stopped,key_resp_2.keys,key_resp_2.rt,key_resp_2.duration,instr2.started,text_6.started,key_resp_6.started,instr2.stopped,key_resp_6.keys,key_resp_6.rt,key_resp_6.duration,practice_trial.started,key_resp_3.started,surround_practice.started,center_practice.started,practice_trial.stopped,key_resp_3.keys,key_resp_3.corr,key_resp_3.rt,key_resp_3.duration,practice_feedback.started,text_7.started,practice_feedback.stopped,text_7.stopped,instr3.started,text_8.started,key_resp_5.started,instr3.stopped,key_resp_5.keys,key_resp_5.rt,key_resp_5.duration,practice_trial_timed.started,key_resp_4.started,surround_practice_2.started,center_practice_2.started,surround_practice_2.stopped,center_practice_2.stopped,text_12.started,practice_trial_timed.stopped,key_resp_4.keys,key_resp_4.corr,key_resp_4.rt,key_resp_4.duration,start_instr.started,text_13.started,key_resp_8.started,start_instr.stopped,key_resp_8.keys,key_resp_8.rt,key_resp_8.duration,trials.label,trials.nReps,trials.startVal,trials.maxVal,trials.minVal,trials.stepSizes,trials.stepType,trials.nUp,trials.nDown,trials.nReversals,trials.thisIndex,trials.thisRepN,trials.thisN,trials.direction,trials.stepSize,trials.intensity,trial.started,center_angle,surround_angle,resp.started,surround_grating.started,center_grating.started,surround_grating.stopped,center_grating.stopped,text_3.started,trial.stopped,trials.response,break_2.started,text_14.started,key_resp_9.started,break_2.stopped,key_resp_9.keys,key_resp_9.rt,key_resp_9.duration,end.started,text_4.started,key_resp.started,end.stopped,key_resp.keys,key_resp.rt,key_resp.duration,sub,ses,date,expName,psychopyVersion,frameRate,expStart,
,,,,,,,,,,,,,,,,,,0.01307749999978114,0.020795874996110797,0.020795874996110797,1.4437444169961964,space,1.4010319160006475,None,,,,,,,,,,,,,,,,,,,,,,,,,,,,,,,,,,,,,,,,,,,,,,,,,,,,,,,,,,,,,,,,,,,,,,,,,,,,,,,,,,,,,,,,eliza,0,2025-08-25_13h22.05.925,tilt_staircase,2023.2.3,None,2025-08-25 13h22.22.418159 -0400,
,,,,,,,,,,,,,,,,,,,,,,,,,1.4437639999960084,1.4531799579999642,1.4531799579999642,23.771958792000078,space,22.312016707997827,None,,,,,,,,,,,,,,,,,,,,,,,,,,,,,,,,,,,,,,,,,,,,,,,,,,,,,,,,,,,,,,,,,,,,,,,,,,,,,,,,,eliza,0,2025-08-25_13h22.05.925,tilt_staircase,2023.2.3,None,2025-08-25 13h22.22.418159 -0400,
30,0,right,,0,0,0,0,,,,,,,,,23.78684358299506,,,,,,,,,,,,,,,,23.77695125000173,23.78684358299506,24.269892917000107,24.269892917000107,24.827752625002177,right,1,1.0386045839986764,None,24.828104041996994,24.8481177499998,26.33725549999508,,,,,,,,,,,,,,,,,,,,,,,,,,,,,,,,,,,,,,,,,,,,,,,,,,,,,,,,,,,,,,,,,,,,,eliza,0,2025-08-25_13h22.05.925,tilt_staircase,2023.2.3,None,2025-08-25 13h22.22.418159 -0400,
-30,0,left,,0,1,1,1,,,,,,,,,26.34205012500024,,,,,,,,,,,,,,,,26.337480916998175,26.34205012500024,26.8287975419953,26.8287975419953,27.30420445799973,left,1,0.9576667080036714,None,27.304415082995547,27.311997917000554,28.80420333299844,28.80978058299661,,,,,,,,,,,,,,,,,,,,,,,,,,,,,,,,,,,,,,,,,,,,,,,,,,,,,,,,,,,,,,,,,,,,eliza,0,2025-08-25_13h22.05.925,tilt_staircase,2023.2.3,None,2025-08-25 13h22.22.418159 -0400,
30,60,right,,0,2,2,2,,,,,,,,,28.80978058299661,,,,,,,,,,,,,,,,28.804641167000227,28.80978058299661,29.295997583001736,29.295997583001736,29.644552707999537,right,1,0.8310952499959967,None,29.645195541997964,29.652899875000003,31.137736999997287,31.142314625001745,,,,,,,,,,,,,,,,,,,,,,,,,,,,,,,,,,,,,,,,,,,,,,,,,,,,,,,,,,,,,,,,,,,,eliza,0,2025-08-25_13h22.05.925,tilt_staircase,2023.2.3,None,2025-08-25 13h22.22.418159 -0400,
-30,-60,left,,0,3,3,3,,,,,,,,,31.142314625001745,,,,,,,,,,,,,,,,31.137919166998472,31.142314625001745,31.645810624999285,31.645810624999285,32.22189820800122,left,1,1.0778185829985887,None,32.222481042001164,32.22873612499825,33.72127462500066,33.728159499994945,,,,,,,,,,,,,,,,,,,,,,,,,,,,,,,,,,,,,,,,,,,,,,,,,,,,,,,,,,,,,,,,,,,,eliza,0,2025-08-25_13h22.05.925,tilt_staircase,2023.2.3,None,2025-08-25 13h22.22.418159 -0400,
,,,,,,,,,,,,,,,,,,,,,,,,,,,,,,,,,,,,,,,,,,,,,33.72137300000031,33.728159499994945,33.728159499994945,42.63893037499656,space,8.899566624997533,None,,,,,,,,,,,,,,,,,,,,,,,,,,,,,,,,,,,,,,,,,,,,,,,,,,,,,,,,,,,,,eliza,0,2025-08-25_13h22.05.925,tilt_staircase,2023.2.3,None,2025-08-25 13h22.22.418159 -0400,
-30,-60,left,100,,,,,0,0,0,0,,,,,42.65326125000138,,,,,,,,,,,,,,,,,,,,,,,,,44.0625941670005,44.07001158299681,45.55475999999908,45.56006520799565,,,,,,,,42.64656104199821,42.65326125000138,43.13647116699576,43.13647116699576,43.21138912499737,43.21138912499737,43.21138912499737,44.06224841700168,left,1,1.4071498330013128,None,,,,,,,,,,,,,,,,,,,,,,,,,,,,,,,,,,,,,,,,,,,,,,,,,eliza,0,2025-08-25_13h22.05.925,tilt_staircase,2023.2.3,None,2025-08-25 13h22.22.418159 -0400,
-30,0,left,100,,,,,0,1,1,1,,,,,45.56006520799565,,,,,,,,,,,,,,,,,,,,,,,,,46.49453058299696,46.50365858300211,47.98812066699611,47.99377912499767,,,,,,,,45.55528916700132,45.56006520799565,46.06410195799981,46.06410195799981,46.13703458300006,46.13703458300006,46.13703458300006,46.494316874996,left,1,0.928480833004869,None,,,,,,,,,,,,,,,,,,,,,,,,,,,,,,,,,,,,,,,,,,,,,,,,,eliza,0,2025-08-25_13h22.05.925,tilt_staircase,2023.2.3,None,2025-08-25 13h22.22.418159 -0400,
30,60,right,100,,,,,0,2,2,2,,,,,47.99377912499767,,,,,,,,,,,,,,,,,,,,,,,,,49.072260332999576,49.07895220800128,50.57162724999944,50.576687000000675,,,,,,,,47.98869824999565,47.99377912499767,48.49629954199918,48.49629954199918,48.57051229199715,48.57051229199715,48.57051229199715,49.07164433300204,right,1,1.068128875005641,None,,,,,,,,,,,,,,,,,,,,,,,,,,,,,,,,,,,,,,,,,,,,,,,,,eliza,0,2025-08-25_13h22.05.925,tilt_staircase,2023.2.3,None,2025-08-25 13h22.22.418159 -0400,
30,0,right,100,,,,,0,3,3,3,,,,,50.576687000000675,,,,,,,,,,,,,,,,,,,,,,,,,51.428126499995415,51.43685612500121,52.92135945799964,52.92690608299745,,,,,,,,50.572105332998035,50.576687000000675,51.07030649999797,51.07030649999797,51.143223499995656,51.143223499995656,51.143223499995656,51.42791070800013,right,1,0.8502439169969875,None,,,,,,,,,,,,,,,,,,,,,,,,,,,,,,,,,,,,,,,,,,,,,,,,,eliza,0,2025-08-25_13h22.05.925,tilt_staircase,2023.2.3,None,2025-08-25 13h22.22.418159 -0400,
-30,69,left,0,,,,,0,4,4,4,,,,,52.92690608299745,,,,,,,,,,,,,,,,,,,,,,,,,53.789114291997976,53.79564154199761,55.287992792000296,55.29356079200079,,,,,,,,52.921902207999665,52.92690608299745,53.42853124999965,53.42853124999965,53.5037970830017,53.5037970830017,53.5037970830017,53.78853708299721,left,1,0.8574831250007264,None,,,,,,,,,,,,,,,,,,,,,,,,,,,,,,,,,,,,,,,,,,,,,,,,,eliza,0,2025-08-25_13h22.05.925,tilt_staircase,2023.2.3,None,2025-08-25 13h22.22.418159 -0400,
30,69,right,0,,,,,0,5,5,5,,,,,55.29356079200079,,,,,,,,,,,,,,,,,,,,,,,,,56.127287124996656,56.13704837499972,57.62106095800118,57.627841292000085,,,,,,,,55.28843183299614,55.29356079200079,55.78706724999938,55.78706724999938,55.86061016700114,55.86061016700114,55.86061016700114,56.12671629199758,right,1,0.8270732079981826,None,,,,,,,,,,,,,,,,,,,,,,,,,,,,,,,,,,,,,,,,,,,,,,,,,eliza,0,2025-08-25_13h22.05.925,tilt_staircase,2023.2.3,None,2025-08-25 13h22.22.418159 -0400,
,,,,,,,,,,,,,,,,,,,,,,,,,,,,,,,,,,,,,,,,,,,,,,,,,,,,,,,,,,,,,,,,57.62115108299622,57.627841292000085,57.627841292000085,65.35561304199655,space,7.723798042003182,None,,,,,,,,,,,,,,,,,,,,,,,,,,,,,,,,,,,,,,,,,,eliza,0,2025-08-25_13h22.05.925,tilt_staircase,2023.2.3,None,2025-08-25 13h22.22.418159 -0400,
,,,,,,,,,,,,0,0,0,0,65.48821179199876,,,,,,,,,,,,,,,,,,,,,,,,,,,,,,,,,,,,,,,,,,,,,,,,,,,,,,,negc_negs,30,-15,15,-15,"[5, 2, 1, 0.5]",lin,1,1,8,0,1,0,start,5,-15,65.48132129199803,-15,-30,65.48821179199876,65.85699775000103,65.85699775000103,65.93727112499619,65.93727112499619,65.93727112499619,66.45521737499803,0,,,,,,,,,,,,,,,eliza,0,2025-08-25_13h22.05.925,tilt_staircase,2023.2.3,None,2025-08-25 13h22.22.418159 -0400,
,,,,,,,,,,,,0,0,0,0,66.46071333299915,,,,,,,,,,,,,,,,,,,,,,,,,,,,,,,,,,,,,,,,,,,,,,,,,,,,,,,posc_noss,30,15,15,-15,"[5, 2, 1, 0.5]",lin,1,1,8,5,1,1,start,5,15,66.45532479199755,15,,66.46071333299915,66.9543364170022,66.9543364170022,67.02715758299746,67.02715758299746,67.02715758299746,67.55504466699495,1,,,,,,,,,,,,,,,eliza,0,2025-08-25_13h22.05.925,tilt_staircase,2023.2.3,None,2025-08-25 13h22.22.418159 -0400,
,,,,,,,,,,,,0,0,0,0,67.56145174999983,,,,,,,,,,,,,,,,,,,,,,,,,,,,,,,,,,,,,,,,,,,,,,,,,,,,,,,posc_poss,30,15,15,-15,"[5, 2, 1, 0.5]",lin,1,1,8,3,1,2,start,5,15,67.55532441700052,15,30,67.56145174999983,68.05390058299963,68.05390058299963,68.12708533299883,68.12708533299883,68.12708533299883,68.6618095829981,1,,,,,,,,,,,,,,,eliza,0,2025-08-25_13h22.05.925,tilt_staircase,2023.2.3,None,2025-08-25 13h22.22.418159 -0400,
,,,,,,,,,,,,0,0,0,0,68.67030795799656,,,,,,,,,,,,,,,,,,,,,,,,,,,,,,,,,,,,,,,,,,,,,,,,,,,,,,,posc_negs,30,15,15,-15,"[5, 2, 1, 0.5]",lin,1,1,8,1,1,3,start,5,15,68.66191245799564,15,-30,68.67030795799656,69.16234329199506,69.16234329199506,69.2374471669973,69.2374471669973,69.2374471669973,69.70490099999734,1,,,,,,,,,,,,,,,eliza,0,2025-08-25_13h22.05.925,tilt_staircase,2023.2.3,None,2025-08-25 13h22.22.418159 -0400,
,,,,,,,,,,,,0,0,0,0,69.71097037499567,,,,,,,,,,,,,,,,,,,,,,,,,,,,,,,,,,,,,,,,,,,,,,,,,,,,,,,negc_noss,30,-15,15,-15,"[5, 2, 1, 0.5]",lin,1,1,8,4,1,4,start,5,-15,69.7051743330012,-15,,69.71097037499567,70.20367999999871,70.20367999999871,70.2771267499993,70.2771267499993,70.2771267499993,70.62736883299658,0,,,,,,,,,,,,,,,eliza,0,2025-08-25_13h22.05.925,tilt_staircase,2023.2.3,None,2025-08-25 13h22.22.418159 -0400,
,,,,,,,,,,,,0,0,0,0,70.6370332919978,,,,,,,,,,,,,,,,,,,,,,,,,,,,,,,,,,,,,,,,,,,,,,,,,,,,,,,negc_poss,30,-15,15,-15,"[5, 2, 1, 0.5]",lin,1,1,8,2,1,5,start,5,-15,70.6274723749957,-15,30,70.6370332919978,71.12869812500139,71.12869812500139,71.20391504199506,71.20391504199506,71.20391504199506,71.67198325000209,0,,,,,,,,,,,,,,,eliza,0,2025-08-25_13h22.05.925,tilt_staircase,2023.2.3,None,2025-08-25 13h22.22.418159 -0400,
,,,,,,,,,,,,0,0,0,0,71.6782156670015,,,,,,,,,,,,,,,,,,,,,,,,,,,,,,,,,,,,,,,,,,,,,,,,,,,,,,,posc_negs,30,15,15,-15,"[5, 2, 1, 0.5]",lin,1,1,8,1,2,6,down,5,10,71.67227208300028,10,-30,71.6782156670015,72.17050987499533,72.17050987499533,72.24461995800084,72.24461995800084,72.24461995800084,72.57153929199558,1,,,,,,,,,,,,,,,eliza,0,2025-08-25_13h22.05.925,tilt_staircase,2023.2.3,None,2025-08-25 13h22.22.418159 -0400,
,,,,,,,,,,,,0,0,0,0,72.57751479199942,,,,,,,,,,,,,,,,,,,,,,,,,,,,,,,,,,,,,,,,,,,,,,,,,,,,,,,posc_poss,30,15,15,-15,"[5, 2, 1, 0.5]",lin,1,1,8,3,2,7,down,5,10,72.57180225000047,10,30,72.57751479199942,73.07051316699653,73.07051316699653,73.14376962499955,73.14376962499955,73.14376962499955,73.53760483299993,0,,,,,,,,,,,,,,,eliza,0,2025-08-25_13h22.05.925,tilt_staircase,2023.2.3,None,2025-08-25 13h22.22.418159 -0400,
,,,,,,,,,,,,0,0,0,0,73.54298258299968,,,,,,,,,,,,,,,,,,,,,,,,,,,,,,,,,,,,,,,,,,,,,,,,,,,,,,,posc_noss,30,15,15,-15,"[5, 2, 1, 0.5]",lin,1,1,8,5,2,8,down,5,10,73.5377045829955,10,,73.54298258299968,74.02895845799503,74.02895845799503,74.10402987500129,74.10402987500129,74.11170016699907,74.63763774999825,1,,,,,,,,,,,,,,,eliza,0,2025-08-25_13h22.05.925,tilt_staircase,2023.2.3,None,2025-08-25 13h22.22.418159 -0400,
,,,,,,,,,,,,0,0,0,0,74.64358533299674,,,,,,,,,,,,,,,,,,,,,,,,,,,,,,,,,,,,,,,,,,,,,,,,,,,,,,,negc_noss,30,-15,15,-15,"[5, 2, 1, 0.5]",lin,1,1,8,4,2,9,up,5,-10,74.63775429200177,-10,,74.64358533299674,75.12823837500036,75.12823837500036,75.20410766699933,75.20410766699933,75.21115416700195,75.62223091699707,0,,,,,,,,,,,,,,,eliza,0,2025-08-25_13h22.05.925,tilt_staircase,2023.2.3,None,2025-08-25 13h22.22.418159 -0400,
,,,,,,,,,,,,0,0,0,0,75.62877954199939,,,,,,,,,,,,,,,,,,,,,,,,,,,,,,,,,,,,,,,,,,,,,,,,,,,,,,,negc_negs,30,-15,15,-15,"[5, 2, 1, 0.5]",lin,1,1,8,0,2,10,up,5,-10,75.62250629199843,-10,-30,75.62877954199939,76.12058508300106,76.12058508300106,76.19390187499812,76.19390187499812,76.19390187499812,76.77200433299731,0,,,,,,,,,,,,,,,eliza,0,2025-08-25_13h22.05.925,tilt_staircase,2023.2.3,None,2025-08-25 13h22.22.418159 -0400,
,,,,,,,,,,,,0,0,0,0,76.77762279199669,,,,,,,,,,,,,,,,,,,,,,,,,,,,,,,,,,,,,,,,,,,,,,,,,,,,,,,negc_poss,30,-15,15,-15,"[5, 2, 1, 0.5]",lin,1,1,8,2,2,11,up,5,-10,76.77223866699933,-10,30,76.77762279199669,77.27052191700204,77.27052191700204,77.34463595799753,77.34463595799753,77.34463595799753,77.8207685419984,0,,,,,,,,,,,,,,,eliza,0,2025-08-25_13h22.05.925,tilt_staircase,2023.2.3,None,2025-08-25 13h22.22.418159 -0400,
,,,,,,,,,,,,0,0,0,0,77.82636687500053,,,,,,,,,,,,,,,,,,,,,,,,,,,,,,,,,,,,,,,,,,,,,,,,,,,,,,,negc_poss,30,-15,15,-15,"[5, 2, 1, 0.5]",lin,1,1,8,2,3,12,up,5,-5,77.82088645800104,-5,30,77.82636687500053,78.31219299999793,78.31219299999793,78.387141332998,78.387141332998,78.39470245799748,78.99360175000038,0,,,,,,,,,,,,,,,eliza,0,2025-08-25_13h22.05.925,tilt_staircase,2023.2.3,None,2025-08-25 13h22.22.418159 -0400,
,,,,,,,,,,,,0,0,0,0,79.00372795799922,,,,,,,,,,,,,,,,,,,,,,,,,,,,,,,,,,,,,,,,,,,,,,,,,,,,,,,posc_negs,30,15,15,-15,"[5, 2, 1, 0.5]",lin,1,1,8,1,3,13,down,5,5,78.99375058300211,5,-30,79.00372795799922,79.48730233300012,79.48730233300012,79.55920979200164,79.55920979200164,79.57053604199609,80.03853629199875,1,,,,,,,,,,,,,,,eliza,0,2025-08-25_13h22.05.925,tilt_staircase,2023.2.3,None,2025-08-25 13h22.22.418159 -0400,
,,,,,,,,,,,,0,0,0,0,80.04477733300155,,,,,,,,,,,,,,,,,,,,,,,,,,,,,,,,,,,,,,,,,,,,,,,,,,,,,,,negc_noss,30,-15,15,-15,"[5, 2, 1, 0.5]",lin,1,1,8,4,3,14,up,5,-5,80.03879712500202,-5,,80.04477733300155,80.53716479199647,80.53716479199647,80.60851233299763,80.60851233299763,80.60851233299763,81.12822129199776,0,,,,,,,,,,,,,,,eliza,0,2025-08-25_13h22.05.925,tilt_staircase,2023.2.3,None,2025-08-25 13h22.22.418159 -0400,
,,,,,,,,,,,,0,0,0,0,81.13719908300118,,,,,,,,,,,,,,,,,,,,,,,,,,,,,,,,,,,,,,,,,,,,,,,,,,,,,,,posc_poss,30,15,15,-15,"[5, 2, 1, 0.5]",lin,1,1,8,3,3,15,up,2,12,81.12832295800035,12,30,81.13719908300118,81.62829554199561,81.62829554199561,81.70390745799523,81.70390745799523,81.70390745799523,82.9132916669987,1,,,,,,,,,,,,,,,eliza,0,2025-08-25_13h22.05.925,tilt_staircase,2023.2.3,None,2025-08-25 13h22.22.418159 -0400,
,,,,,,,,,,,,0,0,0,0,82.92257454199716,,,,,,,,,,,,,,,,,,,,,,,,,,,,,,,,,,,,,,,,,,,,,,,,,,,,,,,posc_noss,30,15,15,-15,"[5, 2, 1, 0.5]",lin,1,1,8,5,3,16,down,5,5,82.913541832997,5,,82.92257454199716,83.41251058299531,83.41251058299531,83.4872452080017,83.4872452080017,83.4872452080017,84.0875962919963,1,,,,,,,,,,,,,,,eliza,0,2025-08-25_13h22.05.925,tilt_staircase,2023.2.3,None,2025-08-25 13h22.22.418159 -0400,
,,,,,,,,,,,,0,0,0,0,84.09315595799853,,,,,,,,,,,,,,,,,,,,,,,,,,,,,,,,,,,,,,,,,,,,,,,,,,,,,,,negc_negs,30,-15,15,-15,"[5, 2, 1, 0.5]",lin,1,1,8,0,3,17,up,5,-5,84.0877038749968,-5,-30,84.09315595799853,84.57974616700085,84.57974616700085,84.65406449999864,84.65406449999864,84.66111904200079,85.60561958299513,1,,,,,,,,,,,,,,,eliza,0,2025-08-25_13h22.05.925,tilt_staircase,2023.2.3,None,2025-08-25 13h22.22.418159 -0400,
,,,,,,,,,,,,0,0,0,0,85.6109576250019,,,,,,,,,,,,,,,,,,,,,,,,,,,,,,,,,,,,,,,,,,,,,,,,,,,,,,,posc_noss,30,15,15,-15,"[5, 2, 1, 0.5]",lin,1,1,8,5,4,18,down,5,0,85.60573341699637,0,,85.6109576250019,86.10417604199756,86.10417604199756,86.17755208299786,86.17755208299786,86.17755208299786,86.83805874999962,1,,,,,,,,,,,,,,,eliza,0,2025-08-25_13h22.05.925,tilt_staircase,2023.2.3,None,2025-08-25 13h22.22.418159 -0400,
,,,,,,,,,,,,0,0,0,0,86.84346566699969,,,,,,,,,,,,,,,,,,,,,,,,,,,,,,,,,,,,,,,,,,,,,,,,,,,,,,,posc_poss,30,15,15,-15,"[5, 2, 1, 0.5]",lin,1,1,8,3,4,19,down,1,11,86.8381576669999,11,30,86.84346566699969,87.33699591700133,87.33699591700133,87.41082070799894,87.41082070799894,87.41082070799894,87.98848037499556,1,,,,,,,,,,,,,,,eliza,0,2025-08-25_13h22.05.925,tilt_staircase,2023.2.3,None,2025-08-25 13h22.22.418159 -0400,
,,,,,,,,,,,,0,0,0,0,87.99426829200092,,,,,,,,,,,,,,,,,,,,,,,,,,,,,,,,,,,,,,,,,,,,,,,,,,,,,,,negc_noss,30,-15,15,-15,"[5, 2, 1, 0.5]",lin,1,1,8,4,4,20,up,5,0,87.98874391699792,0,,87.99426829200092,88.48734641700139,88.48734641700139,88.56148516699614,88.56148516699614,88.56148516699614,89.12178287500137,1,,,,,,,,,,,,,,,eliza,0,2025-08-25_13h22.05.925,tilt_staircase,2023.2.3,None,2025-08-25 13h22.22.418159 -0400,
,,,,,,,,,,,,0,0,0,0,89.12995716699515,,,,,,,,,,,,,,,,,,,,,,,,,,,,,,,,,,,,,,,,,,,,,,,,,,,,,,,negc_poss,30,-15,15,-15,"[5, 2, 1, 0.5]",lin,1,1,8,2,4,21,up,5,0,89.12209029199585,0,30,89.12995716699515,89.62046299999929,89.62046299999929,89.69498383299651,89.69498383299651,89.69498383299651,90.45445708299667,1,,,,,,,,,,,,,,,eliza,0,2025-08-25_13h22.05.925,tilt_staircase,2023.2.3,None,2025-08-25 13h22.22.418159 -0400,
,,,,,,,,,,,,0,0,0,0,90.45995549999498,,,,,,,,,,,,,,,,,,,,,,,,,,,,,,,,,,,,,,,,,,,,,,,,,,,,,,,negc_negs,30,-15,15,-15,"[5, 2, 1, 0.5]",lin,1,1,8,0,4,22,down,2,-7,90.45456083300087,-7,-30,90.45995549999498,90.94528462499875,90.94528462499875,91.02064104199962,91.02064104199962,91.0274922919998,91.79322562499874,0,,,,,,,,,,,,,,,eliza,0,2025-08-25_13h22.05.925,tilt_staircase,2023.2.3,None,2025-08-25 13h22.22.418159 -0400,
,,,,,,,,,,,,0,0,0,0,91.80373229199904,,,,,,,,,,,,,,,,,,,,,,,,,,,,,,,,,,,,,,,,,,,,,,,,,,,,,,,posc_negs,30,15,15,-15,"[5, 2, 1, 0.5]",lin,1,1,8,1,4,23,down,5,0,91.79338583299977,0,-30,91.80373229199904,92.28731983299804,92.28731983299804,92.36005762499553,92.36005762499553,92.37067016700166,92.9210820829976,1,,,,,,,,,,,,,,,eliza,0,2025-08-25_13h22.05.925,tilt_staircase,2023.2.3,None,2025-08-25 13h22.22.418159 -0400,
,,,,,,,,,,,,0,0,0,0,92.92646829199657,,,,,,,,,,,,,,,,,,,,,,,,,,,,,,,,,,,,,,,,,,,,,,,,,,,,,,,negc_negs,30,-15,15,-15,"[5, 2, 1, 0.5]",lin,1,1,8,0,5,24,up,1,-6,92.92119254199497,-6,-30,92.92646829199657,93.41137233300105,93.41137233300105,93.48726816700218,93.48726816700218,93.4943632919967,95.02842633299588,1,,,,,,,,,,,,,,,eliza,0,2025-08-25_13h22.05.925,tilt_staircase,2023.2.3,None,2025-08-25 13h22.22.418159 -0400,
,,,,,,,,,,,,0,0,0,0,95.03714899999613,,,,,,,,,,,,,,,,,,,,,,,,,,,,,,,,,,,,,,,,,,,,,,,,,,,,,,,posc_noss,30,15,15,-15,"[5, 2, 1, 0.5]",lin,1,1,8,5,5,25,down,5,-5,95.02855166699737,-5,,95.03714899999613,95.5302862919998,95.5302862919998,95.60896712500107,95.60896712500107,95.60396875000151,96.04457083300076,0,,,,,,,,,,,,,,,eliza,0,2025-08-25_13h22.05.925,tilt_staircase,2023.2.3,None,2025-08-25 13h22.22.418159 -0400,
,,,,,,,,,,,,0,0,0,0,96.05370708299597,,,,,,,,,,,,,,,,,,,,,,,,,,,,,,,,,,,,,,,,,,,,,,,,,,,,,,,posc_poss,30,15,15,-15,"[5, 2, 1, 0.5]",lin,1,1,8,3,5,26,down,1,10,96.04468225000164,10,30,96.05370708299597,96.5454393330001,96.5454393330001,96.62054966700089,96.62054966700089,96.62054966700089,97.17175116699946,1,,,,,,,,,,,,,,,eliza,0,2025-08-25_13h22.05.925,tilt_staircase,2023.2.3,None,2025-08-25 13h22.22.418159 -0400,
,,,,,,,,,,,,0,0,0,0,97.17794429200148,,,,,,,,,,,,,,,,,,,,,,,,,,,,,,,,,,,,,,,,,,,,,,,,,,,,,,,negc_poss,30,-15,15,-15,"[5, 2, 1, 0.5]",lin,1,1,8,2,5,27,down,2,-2,97.17203595799947,-2,30,97.17794429200148,97.66270066699508,97.66270066699508,97.73732833300164,97.73732833300164,97.74419099999795,98.42125670799578,0,,,,,,,,,,,,,,,eliza,0,2025-08-25_13h22.05.925,tilt_staircase,2023.2.3,None,2025-08-25 13h22.22.418159 -0400,
,,,,,,,,,,,,0,0,0,0,98.42729441700067,,,,,,,,,,,,,,,,,,,,,,,,,,,,,,,,,,,,,,,,,,,,,,,,,,,,,,,posc_negs,30,15,15,-15,"[5, 2, 1, 0.5]",lin,1,1,8,1,5,28,down,5,-5,98.42138808299933,-5,-30,98.42729441700067,98.91070362499886,98.91070362499886,98.98730762500054,98.98730762500054,98.99406208300206,99.65492341700156,0,,,,,,,,,,,,,,,eliza,0,2025-08-25_13h22.05.925,tilt_staircase,2023.2.3,None,2025-08-25 13h22.22.418159 -0400,
,,,,,,,,,,,,0,0,0,0,99.66183212499891,,,,,,,,,,,,,,,,,,,,,,,,,,,,,,,,,,,,,,,,,,,,,,,,,,,,,,,negc_noss,30,-15,15,-15,"[5, 2, 1, 0.5]",lin,1,1,8,4,5,29,down,2,-2,99.65518908300146,-2,,99.66183212499891,100.14580774999922,100.14580774999922,100.22080087500217,100.22080087500217,100.2272869169974,100.92828258300142,0,,,,,,,,,,,,,,,eliza,0,2025-08-25_13h22.05.925,tilt_staircase,2023.2.3,None,2025-08-25 13h22.22.418159 -0400,
,,,,,,,,,,,,0,0,0,0,100.9371442499978,,,,,,,,,,,,,,,,,,,,,,,,,,,,,,,,,,,,,,,,,,,,,,,,,,,,,,,negc_negs,30,-15,15,-15,"[5, 2, 1, 0.5]",lin,1,1,8,0,6,30,down,0.5,-6.5,100.92839633300173,-6.5,-30,100.9371442499978,101.42838495799515,101.42838495799515,101.50388629199733,101.50388629199733,101.50388629199733,102.3380445829971,0,,,,,,,,,,,,,,,eliza,0,2025-08-25_13h22.05.925,tilt_staircase,2023.2.3,None,2025-08-25 13h22.22.418159 -0400,
,,,,,,,,,,,,0,0,0,0,102.34287895799935,,,,,,,,,,,,,,,,,,,,,,,,,,,,,,,,,,,,,,,,,,,,,,,,,,,,,,,negc_poss,30,-15,15,-15,"[5, 2, 1, 0.5]",lin,1,1,8,2,6,31,up,1,-1,102.33819354199659,-1,30,102.34287895799935,102.82980395799677,102.82980395799677,102.90396874999715,102.90396874999715,102.91022904199781,103.63846637499955,0,,,,,,,,,,,,,,,eliza,0,2025-08-25_13h22.05.925,tilt_staircase,2023.2.3,None,2025-08-25 13h22.22.418159 -0400,
,,,,,,,,,,,,0,0,0,0,103.64466670800175,,,,,,,,,,,,,,,,,,,,,,,,,,,,,,,,,,,,,,,,,,,,,,,,,,,,,,,posc_poss,30,15,15,-15,"[5, 2, 1, 0.5]",lin,1,1,8,3,6,32,down,1,9,103.63872862499557,9,30,103.64466670800175,104.13791579200188,104.13791579200188,104.21101566699508,104.21101566699508,104.21101566699508,104.85502641699713,1,,,,,,,,,,,,,,,eliza,0,2025-08-25_13h22.05.925,tilt_staircase,2023.2.3,None,2025-08-25 13h22.22.418159 -0400,
,,,,,,,,,,,,0,0,0,0,104.86176875000092,,,,,,,,,,,,,,,,,,,,,,,,,,,,,,,,,,,,,,,,,,,,,,,,,,,,,,,negc_noss,30,-15,15,-15,"[5, 2, 1, 0.5]",lin,1,1,8,4,6,33,up,1,-1,104.85530558299797,-1,,104.86176875000092,105.35396541700175,105.35396541700175,105.42812574999698,105.42812574999698,105.42812574999698,106.03894295799546,1,,,,,,,,,,,,,,,eliza,0,2025-08-25_13h22.05.925,tilt_staircase,2023.2.3,None,2025-08-25 13h22.22.418159 -0400,
,,,,,,,,,,,,0,0,0,0,106.04600299999584,,,,,,,,,,,,,,,,,,,,,,,,,,,,,,,,,,,,,,,,,,,,,,,,,,,,,,,posc_noss,30,15,15,-15,"[5, 2, 1, 0.5]",lin,1,1,8,5,6,34,up,2,-3,106.03925162499945,-3,,106.04600299999584,106.53746958299598,106.53746958299598,106.61107683299633,106.61107683299633,106.61107683299633,107.26144087500143,0,,,,,,,,,,,,,,,eliza,0,2025-08-25_13h22.05.925,tilt_staircase,2023.2.3,None,2025-08-25 13h22.22.418159 -0400,
,,,,,,,,,,,,0,0,0,0,107.27065737499652,,,,,,,,,,,,,,,,,,,,,,,,,,,,,,,,,,,,,,,,,,,,,,,,,,,,,,,posc_negs,30,15,15,-15,"[5, 2, 1, 0.5]",lin,1,1,8,1,6,35,up,2,-3,107.26153983300173,-3,-30,107.27065737499652,107.76389441699575,107.76389441699575,107.84451433299546,107.84451433299546,107.83733091699833,108.50530270799936,1,,,,,,,,,,,,,,,eliza,0,2025-08-25_13h22.05.925,tilt_staircase,2023.2.3,None,2025-08-25 13h22.22.418159 -0400,
,,,,,,,,,,,,0,0,0,0,108.51210324999556,,,,,,,,,,,,,,,,,,,,,,,,,,,,,,,,,,,,,,,,,,,,,,,,,,,,,,,negc_poss,30,-15,15,-15,"[5, 2, 1, 0.5]",lin,1,1,8,2,7,36,up,1,0,108.50558704199648,0,30,108.51210324999556,109.00417766699684,109.00417766699684,109.07827649999672,109.07827649999672,109.07827649999672,110.72818170800019,0,,,,,,,,,,,,,,,eliza,0,2025-08-25_13h22.05.925,tilt_staircase,2023.2.3,None,2025-08-25 13h22.22.418159 -0400,
,,,,,,,,,,,,0,0,0,0,110.73711999999796,,,,,,,,,,,,,,,,,,,,,,,,,,,,,,,,,,,,,,,,,,,,,,,,,,,,,,,negc_noss,30,-15,15,-15,"[5, 2, 1, 0.5]",lin,1,1,8,4,7,37,down,0.5,-1.5,110.72828808299528,-1.5,,110.73711999999796,111.22954758299602,111.22954758299602,111.303950583002,111.303950583002,111.303950583002,111.80525920799846,0,,,,,,,,,,,,,,,eliza,0,2025-08-25_13h22.05.925,tilt_staircase,2023.2.3,None,2025-08-25 13h22.22.418159 -0400,
,,,,,,,,,,,,0,0,0,0,111.81249316699541,,,,,,,,,,,,,,,,,,,,,,,,,,,,,,,,,,,,,,,,,,,,,,,,,,,,,,,negc_negs,30,-15,15,-15,"[5, 2, 1, 0.5]",lin,1,1,8,0,7,38,up,0.5,-6.0,111.80554141700122,-6.0,-30,111.81249316699541,112.30394429199805,112.30394429199805,112.37688879200141,112.37688879200141,112.37688879200141,113.00441491699894,0,,,,,,,,,,,,,,,eliza,0,2025-08-25_13h22.05.925,tilt_staircase,2023.2.3,None,2025-08-25 13h22.22.418159 -0400,
,,,,,,,,,,,,0,0,0,0,113.00975254199875,,,,,,,,,,,,,,,,,,,,,,,,,,,,,,,,,,,,,,,,,,,,,,,,,,,,,,,posc_noss,30,15,15,-15,"[5, 2, 1, 0.5]",lin,1,1,8,5,7,39,up,2,-1,113.00451562499802,-1,,113.00975254199875,113.49626379199617,113.49626379199617,113.57070124999882,113.57070124999882,113.57771599999978,114.48831420799979,0,,,,,,,,,,,,,,,eliza,0,2025-08-25_13h22.05.925,tilt_staircase,2023.2.3,None,2025-08-25 13h22.22.418159 -0400,
,,,,,,,,,,,,0,0,0,0,114.49502620800195,,,,,,,,,,,,,,,,,,,,,,,,,,,,,,,,,,,,,,,,,,,,,,,,,,,,,,,posc_poss,30,15,15,-15,"[5, 2, 1, 0.5]",lin,1,1,8,3,7,40,down,1,8,114.48857779199898,8,30,114.49502620800195,114.98040833300183,114.98040833300183,115.05406499999663,115.05406499999663,115.06015458299953,115.58835874999932,1,,,,,,,,,,,,,,,eliza,0,2025-08-25_13h22.05.925,tilt_staircase,2023.2.3,None,2025-08-25 13h22.22.418159 -0400,
,,,,,,,,,,,,0,0,0,0,115.59441024999978,,,,,,,,,,,,,,,,,,,,,,,,,,,,,,,,,,,,,,,,,,,,,,,,,,,,,,,posc_negs,30,15,15,-15,"[5, 2, 1, 0.5]",lin,1,1,8,1,7,41,down,1,-4,115.58861841700127,-4,-30,115.59441024999978,116.08741266699508,116.08741266699508,116.16072979199816,116.16072979199816,116.16072979199816,116.74529083300149,1,,,,,,,,,,,,,,,eliza,0,2025-08-25_13h22.05.925,tilt_staircase,2023.2.3,None,2025-08-25 13h22.22.418159 -0400,
,,,,,,,,,,,,0,0,0,0,116.75389012500091,,,,,,,,,,,,,,,,,,,,,,,,,,,,,,,,,,,,,,,,,,,,,,,,,,,,,,,negc_noss,30,-15,15,-15,"[5, 2, 1, 0.5]",lin,1,1,8,4,8,42,up,0.5,-1.0,116.7454157079992,-1.0,,116.75389012500091,117.24634470800083,117.24634470800083,117.32057387499663,117.32057387499663,117.32057387499663,118.49566412499553,0,,,,,,,,,,,,,,,eliza,0,2025-08-25_13h22.05.925,tilt_staircase,2023.2.3,None,2025-08-25 13h22.22.418159 -0400,
,,,,,,,,,,,,0,0,0,0,118.50395737499639,,,,,,,,,,,,,,,,,,,,,,,,,,,,,,,,,,,,,,,,,,,,,,,,,,,,,,,posc_noss,30,15,15,-15,"[5, 2, 1, 0.5]",lin,1,1,8,5,8,43,up,2,1,118.49576716699812,1,,118.50395737499639,118.99588312499691,118.99588312499691,119.07077583299542,119.07077583299542,119.07077583299542,119.72224133300188,1,,,,,,,,,,,,,,,eliza,0,2025-08-25_13h22.05.925,tilt_staircase,2023.2.3,None,2025-08-25 13h22.22.418159 -0400,
,,,,,,,,,,,,0,0,0,0,119.72931391699967,,,,,,,,,,,,,,,,,,,,,,,,,,,,,,,,,,,,,,,,,,,,,,,,,,,,,,,posc_poss,30,15,15,-15,"[5, 2, 1, 0.5]",lin,1,1,8,3,8,44,down,1,7,119.72252904199559,7,30,119.72931391699967,120.22050829199725,120.22050829199725,120.29228074999992,120.29228074999992,120.29228074999992,120.81382687499718,1,,,,,,,,,,,,,,,eliza,0,2025-08-25_13h22.05.925,tilt_staircase,2023.2.3,None,2025-08-25 13h22.22.418159 -0400,
,,,,,,,,,,,,0,0,0,0,120.8203327079973,,,,,,,,,,,,,,,,,,,,,,,,,,,,,,,,,,,,,,,,,,,,,,,,,,,,,,,posc_negs,30,15,15,-15,"[5, 2, 1, 0.5]",lin,1,1,8,1,8,45,down,1,-5,120.81392749999941,-5,-30,120.8203327079973,121.31287108299875,121.31287108299875,121.38723300000129,121.38723300000129,121.38723300000129,122.19568195800093,0,,,,,,,,,,,,,,,eliza,0,2025-08-25_13h22.05.925,tilt_staircase,2023.2.3,None,2025-08-25 13h22.22.418159 -0400,
,,,,,,,,,,,,0,0,0,0,122.20381845800148,,,,,,,,,,,,,,,,,,,,,,,,,,,,,,,,,,,,,,,,,,,,,,,,,,,,,,,negc_poss,30,-15,15,-15,"[5, 2, 1, 0.5]",lin,1,1,8,2,8,46,up,1,1,122.19580295799824,1,30,122.20381845800148,122.69625954199728,122.69625954199728,122.77048233299865,122.77048233299865,122.77048233299865,123.5113562080005,0,,,,,,,,,,,,,,,eliza,0,2025-08-25_13h22.05.925,tilt_staircase,2023.2.3,None,2025-08-25 13h22.22.418159 -0400,
,,,,,,,,,,,,0,0,0,0,123.52062083299825,,,,,,,,,,,,,,,,,,,,,,,,,,,,,,,,,,,,,,,,,,,,,,,,,,,,,,,negc_negs,30,-15,15,-15,"[5, 2, 1, 0.5]",lin,1,1,8,0,8,47,up,0.5,-5.5,123.51145795799675,-5.5,-30,123.52062083299825,124.01265558299929,124.01265558299929,124.08758875000058,124.08758875000058,124.08758875000058,125.16092587499588,1,,,,,,,,,,,,,,,eliza,0,2025-08-25_13h22.05.925,tilt_staircase,2023.2.3,None,2025-08-25 13h22.22.418159 -0400,
,,,,,,,,,,,,0,0,0,0,125.1707759580022,,,,,,,,,,,,,,,,,,,,,,,,,,,,,,,,,,,,,,,,,,,,,,,,,,,,,,,posc_negs,30,15,15,-15,"[5, 2, 1, 0.5]",lin,1,1,8,1,9,48,up,0.5,-4.5,125.16121579199535,-4.5,-30,125.1707759580022,125.67063320799934,125.67063320799934,125.7417874169987,125.7417874169987,125.73698170799616,126.42653287499706,1,,,,,,,,,,,,,,,eliza,0,2025-08-25_13h22.05.925,tilt_staircase,2023.2.3,None,2025-08-25 13h22.22.418159 -0400,
,,,,,,,,,,,,0,0,0,0,126.43740962499578,,,,,,,,,,,,,,,,,,,,,,,,,,,,,,,,,,,,,,,,,,,,,,,,,,,,,,,negc_poss,30,-15,15,-15,"[5, 2, 1, 0.5]",lin,1,1,8,2,9,49,up,1,2,126.42666404199554,2,30,126.43740962499578,126.92061470799672,126.92061470799672,126.99314404199686,126.99314404199686,127.00390150000021,127.62168616699637,1,,,,,,,,,,,,,,,eliza,0,2025-08-25_13h22.05.925,tilt_staircase,2023.2.3,None,2025-08-25 13h22.22.418159 -0400,
,,,,,,,,,,,,0,0,0,0,127.63070662500104,,,,,,,,,,,,,,,,,,,,,,,,,,,,,,,,,,,,,,,,,,,,,,,,,,,,,,,negc_noss,30,-15,15,-15,"[5, 2, 1, 0.5]",lin,1,1,8,4,9,50,up,0.5,-0.5,127.62196570800006,-0.5,,127.63070662500104,128.11537004199636,128.11537004199636,128.20448487500107,128.20448487500107,128.20448487500107,128.7293455830004,1,,,,,,,,,,,,,,,eliza,0,2025-08-25_13h22.05.925,tilt_staircase,2023.2.3,None,2025-08-25 13h22.22.418159 -0400,
,,,,,,,,,,,,0,0,0,0,128.73769883299974,,,,,,,,,,,,,,,,,,,,,,,,,,,,,,,,,,,,,,,,,,,,,,,,,,,,,,,posc_poss,30,15,15,-15,"[5, 2, 1, 0.5]",lin,1,1,8,3,9,51,down,1,6,128.72947258299973,6,30,128.73769883299974,129.22918333300186,129.22918333300186,129.3044550420018,129.3044550420018,129.3044550420018,129.97206408299826,1,,,,,,,,,,,,,,,eliza,0,2025-08-25_13h22.05.925,tilt_staircase,2023.2.3,None,2025-08-25 13h22.22.418159 -0400,
,,,,,,,,,,,,0,0,0,0,129.97955933299818,,,,,,,,,,,,,,,,,,,,,,,,,,,,,,,,,,,,,,,,,,,,,,,,,,,,,,,negc_negs,30,-15,15,-15,"[5, 2, 1, 0.5]",lin,1,1,8,0,9,52,down,0.5,-6.0,129.97230012499494,-6.0,-30,129.97955933299818,130.4700797080004,130.4700797080004,130.54446658300003,130.54446658300003,130.54446658300003,131.54526995799824,1,,,,,,,,,,,,,,,eliza,0,2025-08-25_13h22.05.925,tilt_staircase,2023.2.3,None,2025-08-25 13h22.22.418159 -0400,
,,,,,,,,,,,,0,0,0,0,131.55371908300003,,,,,,,,,,,,,,,,,,,,,,,,,,,,,,,,,,,,,,,,,,,,,,,,,,,,,,,posc_noss,30,15,15,-15,"[5, 2, 1, 0.5]",lin,1,1,8,5,9,53,down,1,0,131.5455191669971,0,,131.55371908300003,132.04790700000012,132.04790700000012,132.12094100000104,132.12094100000104,132.12094100000104,132.74553029199888,1,,,,,,,,,,,,,,,eliza,0,2025-08-25_13h22.05.925,tilt_staircase,2023.2.3,None,2025-08-25 13h22.22.418159 -0400,
,,,,,,,,,,,,0,0,0,0,132.75371691699547,,,,,,,,,,,,,,,,,,,,,,,,,,,,,,,,,,,,,,,,,,,,,,,,,,,,,,,posc_negs,30,15,15,-15,"[5, 2, 1, 0.5]",lin,1,1,8,1,10,54,down,0.5,-5.0,132.74579587500193,-5.0,-30,132.75371691699547,133.24709679200168,133.24709679200168,133.32058666699595,133.32058666699595,133.32058666699595,134.33856099999684,1,,,,,,,,,,,,,,,eliza,0,2025-08-25_13h22.05.925,tilt_staircase,2023.2.3,None,2025-08-25 13h22.22.418159 -0400,
,,,,,,,,,,,,0,0,0,0,134.34741762500198,,,,,,,,,,,,,,,,,,,,,,,,,,,,,,,,,,,,,,,,,,,,,,,,,,,,,,,posc_poss,30,15,15,-15,"[5, 2, 1, 0.5]",lin,1,1,8,3,10,55,down,1,5,134.33880108300218,5,30,134.34741762500198,134.83197266700154,134.83197266700154,134.90448554199975,134.90448554199975,134.91250133299764,135.88856579199637,1,,,,,,,,,,,,,,,eliza,0,2025-08-25_13h22.05.925,tilt_staircase,2023.2.3,None,2025-08-25 13h22.22.418159 -0400,
,,,,,,,,,,,,0,0,0,0,135.89660391699726,,,,,,,,,,,,,,,,,,,,,,,,,,,,,,,,,,,,,,,,,,,,,,,,,,,,,,,negc_negs,30,-15,15,-15,"[5, 2, 1, 0.5]",lin,1,1,8,0,10,56,down,0.5,-6.5,135.88876724999864,-6.5,-30,135.89660391699726,136.38128579199838,136.38128579199838,136.45447554199927,136.45447554199927,136.46253254199837,137.12905308300105,0,,,,,,,,,,,,,,,eliza,0,2025-08-25_13h22.05.925,tilt_staircase,2023.2.3,None,2025-08-25 13h22.22.418159 -0400,
,,,,,,,,,,,,0,0,0,0,137.13750741699914,,,,,,,,,,,,,,,,,,,,,,,,,,,,,,,,,,,,,,,,,,,,,,,,,,,,,,,negc_noss,30,-15,15,-15,"[5, 2, 1, 0.5]",lin,1,1,8,4,10,57,down,0.5,-1.0,137.12929891699605,-1.0,,137.13750741699914,137.63173604199983,137.63173604199983,137.70390875000157,137.70390875000157,137.70390875000157,138.295537082995,0,,,,,,,,,,,,,,,eliza,0,2025-08-25_13h22.05.925,tilt_staircase,2023.2.3,None,2025-08-25 13h22.22.418159 -0400,
,,,,,,,,,,,,0,0,0,0,138.304183207998,,,,,,,,,,,,,,,,,,,,,,,,,,,,,,,,,,,,,,,,,,,,,,,,,,,,,,,posc_noss,30,15,15,-15,"[5, 2, 1, 0.5]",lin,1,1,8,5,10,58,down,1,-1,138.29578395799763,-1,,138.304183207998,138.78784433299734,138.78784433299734,138.85870412499935,138.85870412499935,138.87094049999723,139.4049007499998,0,,,,,,,,,,,,,,,eliza,0,2025-08-25_13h22.05.925,tilt_staircase,2023.2.3,None,2025-08-25 13h22.22.418159 -0400,
,,,,,,,,,,,,0,0,0,0,139.41294441699574,,,,,,,,,,,,,,,,,,,,,,,,,,,,,,,,,,,,,,,,,,,,,,,,,,,,,,,negc_poss,30,-15,15,-15,"[5, 2, 1, 0.5]",lin,1,1,8,2,10,59,down,0.5,1.5,139.40517170800013,1.5,30,139.41294441699574,139.8982493750009,139.8982493750009,139.97111120799673,139.97111120799673,139.97795933299494,140.53866029199708,0,,,,,,,,,,,,,,,eliza,0,2025-08-25_13h22.05.925,tilt_staircase,2023.2.3,None,2025-08-25 13h22.22.418159 -0400,
,,,,,,,,,,,,0,0,0,0,140.54726104199653,,,,,,,,,,,,,,,,,,,,,,,,,,,,,,,,,,,,,,,,,,,,,,,,,,,,,,,negc_negs,30,-15,15,-15,"[5, 2, 1, 0.5]",lin,1,1,8,0,11,60,up,0.5,-6.0,140.53892424999503,-6.0,-30,140.54726104199653,141.03177383299771,141.03177383299771,141.11155750000034,141.11155750000034,141.11155750000034,141.77145895799913,0,,,,,,,,,,,,,,,eliza,0,2025-08-25_13h22.05.925,tilt_staircase,2023.2.3,None,2025-08-25 13h22.22.418159 -0400,
,,,,,,,,,,,,0,0,0,0,141.78005658299662,,,,,,,,,,,,,,,,,,,,,,,,,,,,,,,,,,,,,,,,,,,,,,,,,,,,,,,posc_poss,30,15,15,-15,"[5, 2, 1, 0.5]",lin,1,1,8,3,11,61,down,1,4,141.77166662499803,4,30,141.78005658299662,142.26425608299905,142.26425608299905,142.33782937499927,142.33782937499927,142.3461841669996,143.0286761669995,1,,,,,,,,,,,,,,,eliza,0,2025-08-25_13h22.05.925,tilt_staircase,2023.2.3,None,2025-08-25 13h22.22.418159 -0400,
,,,,,,,,,,,,0,0,0,0,143.03671604199917,,,,,,,,,,,,,,,,,,,,,,,,,,,,,,,,,,,,,,,,,,,,,,,,,,,,,,,posc_negs,30,15,15,-15,"[5, 2, 1, 0.5]",lin,1,1,8,1,11,62,down,0.5,-5.5,143.02887866699893,-5.5,-30,143.03671604199917,143.5312064999962,143.5312064999962,143.6038358750011,143.6038358750011,143.6038358750011,144.62843991699629,0,,,,,,,,,,,,,,,eliza,0,2025-08-25_13h22.05.925,tilt_staircase,2023.2.3,None,2025-08-25 13h22.22.418159 -0400,
,,,,,,,,,,,,0,0,0,0,144.63673433299846,,,,,,,,,,,,,,,,,,,,,,,,,,,,,,,,,,,,,,,,,,,,,,,,,,,,,,,posc_noss,30,15,15,-15,"[5, 2, 1, 0.5]",lin,1,1,8,5,11,63,up,0.5,-0.5,144.62865099999908,-0.5,,144.63673433299846,145.13157525000133,145.13157525000133,145.2039180829961,145.2039180829961,145.2039180829961,145.9046253330016,0,,,,,,,,,,,,,,,eliza,0,2025-08-25_13h22.05.925,tilt_staircase,2023.2.3,None,2025-08-25 13h22.22.418159 -0400,
,,,,,,,,,,,,0,0,0,0,145.90989241699572,,,,,,,,,,,,,,,,,,,,,,,,,,,,,,,,,,,,,,,,,,,,,,,,,,,,,,,negc_noss,30,-15,15,-15,"[5, 2, 1, 0.5]",lin,1,1,8,4,11,64,up,0.5,-0.5,145.9048516249968,-0.5,,145.90989241699572,146.39789808299975,146.39789808299975,146.47110254199652,146.47110254199652,146.4778726250006,147.1886717919988,0,,,,,,,,,,,,,,,eliza,0,2025-08-25_13h22.05.925,tilt_staircase,2023.2.3,None,2025-08-25 13h22.22.418159 -0400,
,,,,,,,,,,,,0,0,0,0,147.19719391699618,,,,,,,,,,,,,,,,,,,,,,,,,,,,,,,,,,,,,,,,,,,,,,,,,,,,,,,negc_poss,30,-15,15,-15,"[5, 2, 1, 0.5]",lin,1,1,8,2,11,65,up,0.5,2.0,147.18891216699558,2.0,30,147.19719391699618,147.68184633299825,147.68184633299825,147.7622032079962,147.7622032079962,147.7622032079962,148.3049262919958,0,,,,,,,,,,,,,,,eliza,0,2025-08-25_13h22.05.925,tilt_staircase,2023.2.3,None,2025-08-25 13h22.22.418159 -0400,
,,,,,,,,,,,,0,0,0,0,148.31351704199915,,,,,,,,,,,,,,,,,,,,,,,,,,,,,,,,,,,,,,,,,,,,,,,,,,,,,,,negc_noss,30,-15,15,-15,"[5, 2, 1, 0.5]",lin,1,1,8,4,12,66,up,0.5,0.0,148.3051860830019,0.0,,148.31351704199915,148.79796245799662,148.79796245799662,148.87118616700172,148.87118616700172,148.8792639999956,149.55513775000145,0,,,,,,,,,,,,,,,eliza,0,2025-08-25_13h22.05.925,tilt_staircase,2023.2.3,None,2025-08-25 13h22.22.418159 -0400,
,,,,,,,,,,,,0,0,0,0,149.5633993750016,,,,,,,,,,,,,,,,,,,,,,,,,,,,,,,,,,,,,,,,,,,,,,,,,,,,,,,posc_negs,30,15,15,-15,"[5, 2, 1, 0.5]",lin,1,1,8,1,12,67,up,0.5,-5.0,149.5553462079988,-5.0,-30,149.5633993750016,150.04822066699853,150.04822066699853,150.12123379200057,150.12123379200057,150.12918254199758,150.75522220799758,0,,,,,,,,,,,,,,,eliza,0,2025-08-25_13h22.05.925,tilt_staircase,2023.2.3,None,2025-08-25 13h22.22.418159 -0400,
,,,,,,,,,,,,0,0,0,0,150.763614083,,,,,,,,,,,,,,,,,,,,,,,,,,,,,,,,,,,,,,,,,,,,,,,,,,,,,,,posc_poss,30,15,15,-15,"[5, 2, 1, 0.5]",lin,1,1,8,3,12,68,down,1,3,150.75546370799566,3,30,150.763614083,151.24860049999552,151.24860049999552,151.32113666700025,151.32113666700025,151.3281240419965,151.88834649999626,0,,,,,,,,,,,,,,,eliza,0,2025-08-25_13h22.05.925,tilt_staircase,2023.2.3,None,2025-08-25 13h22.22.418159 -0400,
,,,,,,,,,,,,0,0,0,0,151.89662362499803,,,,,,,,,,,,,,,,,,,,,,,,,,,,,,,,,,,,,,,,,,,,,,,,,,,,,,,negc_poss,30,-15,15,-15,"[5, 2, 1, 0.5]",lin,1,1,8,2,12,69,up,0.5,2.5,151.88857008299965,2.5,30,151.89662362499803,152.38122825000028,152.38122825000028,152.45455791700078,152.45455791700078,152.46259754199855,153.20483112499642,0,,,,,,,,,,,,,,,eliza,0,2025-08-25_13h22.05.925,tilt_staircase,2023.2.3,None,2025-08-25 13h22.22.418159 -0400,
,,,,,,,,,,,,0,0,0,0,153.21306741699664,,,,,,,,,,,,,,,,,,,,,,,,,,,,,,,,,,,,,,,,,,,,,,,,,,,,,,,negc_negs,30,-15,15,-15,"[5, 2, 1, 0.5]",lin,1,1,8,0,12,70,up,0.5,-5.5,153.20504000000074,-5.5,-30,153.21306741699664,153.6991746249987,153.6991746249987,153.77834779200202,153.77834779200202,153.77834779200202,154.329134874999,0,,,,,,,,,,,,,,,eliza,0,2025-08-25_13h22.05.925,tilt_staircase,2023.2.3,None,2025-08-25 13h22.22.418159 -0400,
,,,,,,,,,,,,0,0,0,0,154.33731550000084,,,,,,,,,,,,,,,,,,,,,,,,,,,,,,,,,,,,,,,,,,,,,,,,,,,,,,,posc_noss,30,15,15,-15,"[5, 2, 1, 0.5]",lin,1,1,8,5,12,71,up,0.5,0.0,154.32935533300042,0.0,,154.33731550000084,154.83170570799848,154.83170570799848,154.90396587499708,154.90396587499708,154.90396587499708,155.67861137499858,0,,,,,,,,,,,,,,,eliza,0,2025-08-25_13h22.05.925,tilt_staircase,2023.2.3,None,2025-08-25 13h22.22.418159 -0400,
,,,,,,,,,,,,0,0,0,0,155.68665462500212,,,,,,,,,,,,,,,,,,,,,,,,,,,,,,,,,,,,,,,,,,,,,,,,,,,,,,,posc_noss,30,15,15,-15,"[5, 2, 1, 0.5]",lin,1,1,8,5,13,72,up,0.5,0.5,155.67883266699937,0.5,,155.68665462500212,156.18227258299885,156.18227258299885,156.26051320799888,156.26051320799888,156.25389975000144,156.75567166700057,0,,,,,,,,,,,,,,,eliza,0,2025-08-25_13h22.05.925,tilt_staircase,2023.2.3,None,2025-08-25 13h22.22.418159 -0400,
,,,,,,,,,,,,0,0,0,0,156.76368874999753,,,,,,,,,,,,,,,,,,,,,,,,,,,,,,,,,,,,,,,,,,,,,,,,,,,,,,,negc_negs,30,-15,15,-15,"[5, 2, 1, 0.5]",lin,1,1,8,0,13,73,up,0.5,-5.0,156.75591570799588,-5.0,-30,156.76368874999753,157.27080733299954,157.27080733299954,157.344021375,157.344021375,157.32981479199952,158.13868558299873,1,,,,,,,,,,,,,,,eliza,0,2025-08-25_13h22.05.925,tilt_staircase,2023.2.3,None,2025-08-25 13h22.22.418159 -0400,
,,,,,,,,,,,,0,0,0,0,158.14730991699616,,,,,,,,,,,,,,,,,,,,,,,,,,,,,,,,,,,,,,,,,,,,,,,,,,,,,,,negc_poss,30,-15,15,-15,"[5, 2, 1, 0.5]",lin,1,1,8,2,13,74,up,0.5,3.0,158.13892874999874,3.0,30,158.14730991699616,158.63090745799855,158.63090745799855,158.70447816699743,158.70447816699743,158.71154083299916,159.37864816699584,0,,,,,,,,,,,,,,,eliza,0,2025-08-25_13h22.05.925,tilt_staircase,2023.2.3,None,2025-08-25 13h22.22.418159 -0400,
,,,,,,,,,,,,0,0,0,0,159.38686720799888,,,,,,,,,,,,,,,,,,,,,,,,,,,,,,,,,,,,,,,,,,,,,,,,,,,,,,,posc_poss,30,15,15,-15,"[5, 2, 1, 0.5]",lin,1,1,8,3,13,75,up,0.5,3.5,159.37889604199881,3.5,30,159.38686720799888,159.87934975000098,159.87934975000098,159.9540591670011,159.9540591670011,159.9540591670011,160.6651644579979,0,,,,,,,,,,,,,,,eliza,0,2025-08-25_13h22.05.925,tilt_staircase,2023.2.3,None,2025-08-25 13h22.22.418159 -0400,
,,,,,,,,,,,,0,0,0,0,160.68717024999933,,,,,,,,,,,,,,,,,,,,,,,,,,,,,,,,,,,,,,,,,,,,,,,,,,,,,,,negc_noss,30,-15,15,-15,"[5, 2, 1, 0.5]",lin,1,1,8,4,13,76,up,0.5,0.5,160.66542958300124,0.5,,160.68717024999933,161.16486112499842,161.16486112499842,161.23735995799507,161.23735995799507,161.23735995799507,162.23901274999662,0,,,,,,,,,,,,,,,eliza,0,2025-08-25_13h22.05.925,tilt_staircase,2023.2.3,None,2025-08-25 13h22.22.418159 -0400,
,,,,,,,,,,,,0,0,0,0,162.2477325419968,,,,,,,,,,,,,,,,,,,,,,,,,,,,,,,,,,,,,,,,,,,,,,,,,,,,,,,posc_negs,30,15,15,-15,"[5, 2, 1, 0.5]",lin,1,1,8,1,13,77,up,0.5,-4.5,162.2392643330022,-4.5,-30,162.2477325419968,162.73681066699646,162.73681066699646,162.81167741699755,162.81167741699755,162.81167741699755,163.63916833300027,0,,,,,,,,,,,,,,,eliza,0,2025-08-25_13h22.05.925,tilt_staircase,2023.2.3,None,2025-08-25 13h22.22.418159 -0400,
,,,,,,,,,,,,0,0,0,0,163.6476213749993,,,,,,,,,,,,,,,,,,,,,,,,,,,,,,,,,,,,,,,,,,,,,,,,,,,,,,,negc_noss,30,-15,15,-15,"[5, 2, 1, 0.5]",lin,1,1,8,4,14,78,up,0.5,1.0,163.639444542001,1.0,,163.6476213749993,164.13698695800122,164.13698695800122,164.21185083299497,164.21185083299497,164.21185083299497,164.81198579199554,1,,,,,,,,,,,,,,,eliza,0,2025-08-25_13h22.05.925,tilt_staircase,2023.2.3,None,2025-08-25 13h22.22.418159 -0400,
,,,,,,,,,,,,0,0,0,0,164.82021887500014,,,,,,,,,,,,,,,,,,,,,,,,,,,,,,,,,,,,,,,,,,,,,,,,,,,,,,,posc_noss,30,15,15,-15,"[5, 2, 1, 0.5]",lin,1,1,8,5,14,79,up,0.5,1.0,164.81219183299982,1.0,,164.82021887500014,165.3149157500011,165.3149157500011,165.38734775000194,165.38734775000194,165.38734775000194,165.98774474999664,1,,,,,,,,,,,,,,,eliza,0,2025-08-25_13h22.05.925,tilt_staircase,2023.2.3,None,2025-08-25 13h22.22.418159 -0400,
,,,,,,,,,,,,0,0,0,0,165.99300516700168,,,,,,,,,,,,,,,,,,,,,,,,,,,,,,,,,,,,,,,,,,,,,,,,,,,,,,,posc_negs,30,15,15,-15,"[5, 2, 1, 0.5]",lin,1,1,8,1,14,80,up,0.5,-4.0,165.98797416700108,-4.0,-30,165.99300516700168,166.4816339579993,166.4816339579993,166.55461691699747,166.55461691699747,166.56276916700153,167.32265758299764,1,,,,,,,,,,,,,,,eliza,0,2025-08-25_13h22.05.925,tilt_staircase,2023.2.3,None,2025-08-25 13h22.22.418159 -0400,
,,,,,,,,,,,,0,0,0,0,167.33111274999828,,,,,,,,,,,,,,,,,,,,,,,,,,,,,,,,,,,,,,,,,,,,,,,,,,,,,,,negc_negs,30,-15,15,-15,"[5, 2, 1, 0.5]",lin,1,1,8,0,14,81,down,0.5,-5.5,167.3229124999998,-5.5,-30,167.33111274999828,167.8204803330009,167.8204803330009,167.89533374999883,167.89533374999883,167.89533374999883,169.06237470799533,1,,,,,,,,,,,,,,,eliza,0,2025-08-25_13h22.05.925,tilt_staircase,2023.2.3,None,2025-08-25 13h22.22.418159 -0400,
,,,,,,,,,,,,0,0,0,0,169.07062600000063,,,,,,,,,,,,,,,,,,,,,,,,,,,,,,,,,,,,,,,,,,,,,,,,,,,,,,,negc_poss,30,-15,15,-15,"[5, 2, 1, 0.5]",lin,1,1,8,2,14,82,up,0.5,3.5,169.06261950000044,3.5,30,169.07062600000063,169.56504983299965,169.56504983299965,169.63742900000216,169.63742900000216,169.63742900000216,170.44560912499583,1,,,,,,,,,,,,,,,eliza,0,2025-08-25_13h22.05.925,tilt_staircase,2023.2.3,None,2025-08-25 13h22.22.418159 -0400,
,,,,,,,,,,,,0,0,0,0,170.4540509169965,,,,,,,,,,,,,,,,,,,,,,,,,,,,,,,,,,,,,,,,,,,,,,,,,,,,,,,posc_poss,30,15,15,-15,"[5, 2, 1, 0.5]",lin,1,1,8,3,14,83,up,0.5,4.0,170.44586054200045,4.0,30,170.4540509169965,170.94869295800163,170.94869295800163,171.02074441700097,171.02074441700097,171.02074441700097,171.6051912920011,1,,,,,,,,,,,,,,,eliza,0,2025-08-25_13h22.05.925,tilt_staircase,2023.2.3,None,2025-08-25 13h22.22.418159 -0400,
,,,,,,,,,,,,0,0,0,0,171.61326266700053,,,,,,,,,,,,,,,,,,,,,,,,,,,,,,,,,,,,,,,,,,,,,,,,,,,,,,,posc_poss,30,15,15,-15,"[5, 2, 1, 0.5]",lin,1,1,8,3,15,84,down,0.5,3.5,171.6054177920014,3.5,30,171.61326266700053,172.09862687499844,172.09862687499844,172.17141504200117,172.17141504200117,172.17957866699726,172.78859479200037,1,,,,,,,,,,,,,,,eliza,0,2025-08-25_13h22.05.925,tilt_staircase,2023.2.3,None,2025-08-25 13h22.22.418159 -0400,
,,,,,,,,,,,,0,0,0,0,172.79707224999584,,,,,,,,,,,,,,,,,,,,,,,,,,,,,,,,,,,,,,,,,,,,,,,,,,,,,,,negc_negs,30,-15,15,-15,"[5, 2, 1, 0.5]",lin,1,1,8,0,15,85,down,0.5,-6.0,172.78883525000128,-6.0,-30,172.79707224999584,173.28191024999978,173.28191024999978,173.3546840420022,173.3546840420022,173.36274799999956,174.52216249999765,0,,,,,,,,,,,,,,,eliza,0,2025-08-25_13h22.05.925,tilt_staircase,2023.2.3,None,2025-08-25 13h22.22.418159 -0400,
,,,,,,,,,,,,0,0,0,0,174.5306990829995,,,,,,,,,,,,,,,,,,,,,,,,,,,,,,,,,,,,,,,,,,,,,,,,,,,,,,,negc_noss,30,-15,15,-15,"[5, 2, 1, 0.5]",lin,1,1,8,4,15,86,down,0.5,0.5,174.52241429199785,0.5,,174.5306990829995,175.01459908299876,175.01459908299876,175.08795720800117,175.08795720800117,175.0953548749967,175.55558787500195,1,,,,,,,,,,,,,,,eliza,0,2025-08-25_13h22.05.925,tilt_staircase,2023.2.3,None,2025-08-25 13h22.22.418159 -0400,
,,,,,,,,,,,,0,0,0,0,175.5645618330018,,,,,,,,,,,,,,,,,,,,,,,,,,,,,,,,,,,,,,,,,,,,,,,,,,,,,,,posc_negs,30,15,15,-15,"[5, 2, 1, 0.5]",lin,1,1,8,1,15,87,down,0.5,-4.5,175.55582937500003,-4.5,-30,175.5645618330018,176.04908095800056,176.04908095800056,176.1295342500016,176.1295342500016,176.1295342500016,177.02225691700005,1,,,,,,,,,,,,,,,eliza,0,2025-08-25_13h22.05.925,tilt_staircase,2023.2.3,None,2025-08-25 13h22.22.418159 -0400,
,,,,,,,,,,,,0,0,0,0,177.0305042079999,,,,,,,,,,,,,,,,,,,,,,,,,,,,,,,,,,,,,,,,,,,,,,,,,,,,,,,negc_poss,30,-15,15,-15,"[5, 2, 1, 0.5]",lin,1,1,8,2,15,88,down,0.5,3.0,177.02250383299543,3.0,30,177.0305042079999,177.51592491699557,177.51592491699557,177.5954574169955,177.5954574169955,177.5954574169955,178.1223085829988,1,,,,,,,,,,,,,,,eliza,0,2025-08-25_13h22.05.925,tilt_staircase,2023.2.3,None,2025-08-25 13h22.22.418159 -0400,
,,,,,,,,,,,,0,0,0,0,178.13092266699823,,,,,,,,,,,,,,,,,,,,,,,,,,,,,,,,,,,,,,,,,,,,,,,,,,,,,,,posc_noss,30,15,15,-15,"[5, 2, 1, 0.5]",lin,1,1,8,5,15,89,down,0.5,0.5,178.12254891699558,0.5,,178.13092266699823,178.620869958002,178.620869958002,178.69547404199693,178.69547404199693,178.69547404199693,179.06284183300158,1,,,,,,,,,,,,,,,eliza,0,2025-08-25_13h22.05.925,tilt_staircase,2023.2.3,None,2025-08-25 13h22.22.418159 -0400,
,,,,,,,,,,,,0,0,0,0,179.07150812500186,,,,,,,,,,,,,,,,,,,,,,,,,,,,,,,,,,,,,,,,,,,,,,,,,,,,,,,negc_noss,30,-15,15,-15,"[5, 2, 1, 0.5]",lin,1,1,8,4,16,90,down,0.5,0.0,179.06309854199935,0.0,,179.07150812500186,179.5664624580022,179.5664624580022,179.64451679199556,179.64451679199556,179.63739558299858,179.98905379200005,1,,,,,,,,,,,,,,,eliza,0,2025-08-25_13h22.05.925,tilt_staircase,2023.2.3,None,2025-08-25 13h22.22.418159 -0400,
,,,,,,,,,,,,0,0,0,0,179.99778087499726,,,,,,,,,,,,,,,,,,,,,,,,,,,,,,,,,,,,,,,,,,,,,,,,,,,,,,,negc_negs,30,-15,15,-15,"[5, 2, 1, 0.5]",lin,1,1,8,0,16,91,up,0.5,-5.5,179.9893006669954,-5.5,-30,179.99778087499726,180.48155604199565,180.48155604199565,180.55470562499977,180.55470562499977,180.5626414579965,181.03954433299805,1,,,,,,,,,,,,,,,eliza,0,2025-08-25_13h22.05.925,tilt_staircase,2023.2.3,None,2025-08-25 13h22.22.418159 -0400,
,,,,,,,,,,,,0,0,0,0,181.04781145799643,,,,,,,,,,,,,,,,,,,,,,,,,,,,,,,,,,,,,,,,,,,,,,,,,,,,,,,negc_poss,30,-15,15,-15,"[5, 2, 1, 0.5]",lin,1,1,8,2,16,92,down,0.5,2.5,181.03975433299638,2.5,30,181.04781145799643,181.537502166997,181.537502166997,181.61274525000044,181.61274525000044,181.61274525000044,182.27890900000057,1,,,,,,,,,,,,,,,eliza,0,2025-08-25_13h22.05.925,tilt_staircase,2023.2.3,None,2025-08-25 13h22.22.418159 -0400,
,,,,,,,,,,,,0,0,0,0,182.28689154199674,,,,,,,,,,,,,,,,,,,,,,,,,,,,,,,,,,,,,,,,,,,,,,,,,,,,,,,posc_noss,30,15,15,-15,"[5, 2, 1, 0.5]",lin,1,1,8,5,16,93,down,0.5,0.0,182.27912329199899,0.0,,182.28689154199674,182.782979333002,182.782979333002,182.86107779199665,182.86107779199665,182.85416729199642,183.33880545799911,1,,,,,,,,,,,,,,,eliza,0,2025-08-25_13h22.05.925,tilt_staircase,2023.2.3,None,2025-08-25 13h22.22.418159 -0400,
,,,,,,,,,,,,0,0,0,0,183.34740904199862,,,,,,,,,,,,,,,,,,,,,,,,,,,,,,,,,,,,,,,,,,,,,,,,,,,,,,,posc_poss,30,15,15,-15,"[5, 2, 1, 0.5]",lin,1,1,8,3,16,94,down,0.5,3.0,183.3390508329976,3.0,30,183.34740904199862,183.83271329200215,183.83271329200215,183.91118791700137,183.91118791700137,183.91118791700137,184.3890473329957,1,,,,,,,,,,,,,,,eliza,0,2025-08-25_13h22.05.925,tilt_staircase,2023.2.3,None,2025-08-25 13h22.22.418159 -0400,
,,,,,,,,,,,,0,0,0,0,184.39790362500207,,,,,,,,,,,,,,,,,,,,,,,,,,,,,,,,,,,,,,,,,,,,,,,,,,,,,,,posc_negs,30,15,15,-15,"[5, 2, 1, 0.5]",lin,1,1,8,1,16,95,down,0.5,-5.0,184.38929504199768,-5.0,-30,184.39790362500207,184.88320766700053,184.88320766700053,184.96269079199556,184.96269079199556,184.96269079199556,185.379174624999,1,,,,,,,,,,,,,,,eliza,0,2025-08-25_13h22.05.925,tilt_staircase,2023.2.3,None,2025-08-25 13h22.22.418159 -0400,
,,,,,,,,,,,,0,0,0,0,185.38758204199985,,,,,,,,,,,,,,,,,,,,,,,,,,,,,,,,,,,,,,,,,,,,,,,,,,,,,,,posc_negs,30,15,15,-15,"[5, 2, 1, 0.5]",lin,1,1,8,1,17,96,down,0.5,-5.5,185.3794428330002,-5.5,-30,185.38758204199985,185.88161362499523,185.88161362499523,185.95420699999522,185.95420699999522,185.95420699999522,186.4289467080016,1,,,,,,,,,,,,,,,eliza,0,2025-08-25_13h22.05.925,tilt_staircase,2023.2.3,None,2025-08-25 13h22.22.418159 -0400,
,,,,,,,,,,,,0,0,0,0,186.43713829199987,,,,,,,,,,,,,,,,,,,,,,,,,,,,,,,,,,,,,,,,,,,,,,,,,,,,,,,negc_noss,30,-15,15,-15,"[5, 2, 1, 0.5]",lin,1,1,8,4,17,97,down,0.5,-0.5,186.42915837500186,-0.5,,186.43713829199987,186.932201292002,186.932201292002,187.00428304199886,187.00428304199886,187.00428304199886,187.44647145799536,1,,,,,,,,,,,,,,,eliza,0,2025-08-25_13h22.05.925,tilt_staircase,2023.2.3,None,2025-08-25 13h22.22.418159 -0400,
,,,,,,,,,,,,0,0,0,0,187.45439025000087,,,,,,,,,,,,,,,,,,,,,,,,,,,,,,,,,,,,,,,,,,,,,,,,,,,,,,,posc_noss,30,15,15,-15,"[5, 2, 1, 0.5]",lin,1,1,8,5,17,98,down,0.5,-0.5,187.4467158749976,-0.5,,187.45439025000087,187.94879329200194,187.94879329200194,188.0209885419972,188.0209885419972,188.0209885419972,188.38865149999765,1,,,,,,,,,,,,,,,eliza,0,2025-08-25_13h22.05.925,tilt_staircase,2023.2.3,None,2025-08-25 13h22.22.418159 -0400,
,,,,,,,,,,,,0,0,0,0,188.3973632499983,,,,,,,,,,,,,,,,,,,,,,,,,,,,,,,,,,,,,,,,,,,,,,,,,,,,,,,negc_poss,30,-15,15,-15,"[5, 2, 1, 0.5]",lin,1,1,8,2,17,99,down,0.5,2.0,188.38889387499512,2.0,30,188.3973632499983,188.88207833300112,188.88207833300112,188.96249404199625,188.96249404199625,188.96249404199625,189.6132018329954,1,,,,,,,,,,,,,,,eliza,0,2025-08-25_13h22.05.925,tilt_staircase,2023.2.3,None,2025-08-25 13h22.22.418159 -0400,
,,,,,,,,,,,,0,0,0,0,189.63786516700202,,,,,,,,,,,,,,,,,,,,,,,,,,,,,,,,,,,,,,,,,,,,,,,,,,,,,,,negc_negs,30,-15,15,-15,"[5, 2, 1, 0.5]",lin,1,1,8,0,17,100,down,0.5,-6.0,189.61344570799702,-6.0,-30,189.63786516700202,190.11335454200162,190.11335454200162,190.18771458300034,190.18771458300034,190.18771458300034,191.61165724999591,1,,,,,,,,,,,,,,,eliza,0,2025-08-25_13h22.05.925,tilt_staircase,2023.2.3,None,2025-08-25 13h22.22.418159 -0400,
,,,,,,,,,,,,0,0,0,0,191.62105341699498,,,,,,,,,,,,,,,,,,,,,,,,,,,,,,,,,,,,,,,,,,,,,,,,,,,,,,,posc_poss,30,15,15,-15,"[5, 2, 1, 0.5]",lin,1,1,8,3,17,101,down,0.5,2.5,191.61175899999944,2.5,30,191.62105341699498,192.1143866249986,192.1143866249986,192.18779825000092,192.18779825000092,192.18779825000092,193.02303974999813,1,,,,,,,,,,,,,,,eliza,0,2025-08-25_13h22.05.925,tilt_staircase,2023.2.3,None,2025-08-25 13h22.22.418159 -0400,
,,,,,,,,,,,,0,0,0,0,193.03214762499556,,,,,,,,,,,,,,,,,,,,,,,,,,,,,,,,,,,,,,,,,,,,,,,,,,,,,,,negc_poss,30,-15,15,-15,"[5, 2, 1, 0.5]",lin,1,1,8,2,18,102,down,0.5,1.5,193.02331566700013,1.5,30,193.03214762499556,193.5212214169951,193.5212214169951,193.59480824999628,193.59480824999628,193.59480824999628,194.32215720800014,1,,,,,,,,,,,,,,,eliza,0,2025-08-25_13h22.05.925,tilt_staircase,2023.2.3,None,2025-08-25 13h22.22.418159 -0400,
,,,,,,,,,,,,0,0,0,0,194.33075870799803,,,,,,,,,,,,,,,,,,,,,,,,,,,,,,,,,,,,,,,,,,,,,,,,,,,,,,,posc_noss,30,15,15,-15,"[5, 2, 1, 0.5]",lin,1,1,8,5,18,103,down,0.5,-1.0,194.32240491700213,-1.0,,194.33075870799803,194.81412933299725,194.81412933299725,194.8878277499971,194.8878277499971,194.89526212499914,195.80647679200047,1,,,,,,,,,,,,,,,eliza,0,2025-08-25_13h22.05.925,tilt_staircase,2023.2.3,None,2025-08-25 13h22.22.418159 -0400,
,,,,,,,,,,,,0,0,0,0,195.812448167002,,,,,,,,,,,,,,,,,,,,,,,,,,,,,,,,,,,,,,,,,,,,,,,,,,,,,,,negc_negs,30,-15,15,-15,"[5, 2, 1, 0.5]",lin,1,1,8,0,18,104,down,0.5,-6.5,195.80680495799606,-6.5,-30,195.812448167002,196.30422195800202,196.30422195800202,196.37831274999917,196.37831274999917,196.37831274999917,197.77203520799958,1,,,,,,,,,,,,,,,eliza,0,2025-08-25_13h22.05.925,tilt_staircase,2023.2.3,None,2025-08-25 13h22.22.418159 -0400,
,,,,,,,,,,,,0,0,0,0,197.77757691699662,,,,,,,,,,,,,,,,,,,,,,,,,,,,,,,,,,,,,,,,,,,,,,,,,,,,,,,negc_noss,30,-15,15,-15,"[5, 2, 1, 0.5]",lin,1,1,8,4,18,105,down,0.5,-1.0,197.772261332997,-1.0,,197.77757691699662,198.26495116699516,198.26495116699516,198.33786600000167,198.33786600000167,198.34521812499588,198.89574433300004,1,,,,,,,,,,,,,,,eliza,0,2025-08-25_13h22.05.925,tilt_staircase,2023.2.3,None,2025-08-25 13h22.22.418159 -0400,
,,,,,,,,,,,,0,0,0,0,198.90407216699532,,,,,,,,,,,,,,,,,,,,,,,,,,,,,,,,,,,,,,,,,,,,,,,,,,,,,,,posc_negs,30,15,15,-15,"[5, 2, 1, 0.5]",lin,1,1,8,1,18,106,down,0.5,-6.0,198.8959857919981,-6.0,-30,198.90407216699532,199.39809895800136,199.39809895800136,199.47101616700093,199.47101616700093,199.47101616700093,200.1721445000003,1,,,,,,,,,,,,,,,eliza,0,2025-08-25_13h22.05.925,tilt_staircase,2023.2.3,None,2025-08-25 13h22.22.418159 -0400,
,,,,,,,,,,,,0,0,0,0,200.18104437500006,,,,,,,,,,,,,,,,,,,,,,,,,,,,,,,,,,,,,,,,,,,,,,,,,,,,,,,posc_poss,30,15,15,-15,"[5, 2, 1, 0.5]",lin,1,1,8,3,18,107,down,0.5,2.0,200.17238954200002,2.0,30,200.18104437500006,200.665999249999,200.665999249999,200.74549958299758,200.74549958299758,200.74549958299758,201.52963737499522,0,,,,,,,,,,,,,,,eliza,0,2025-08-25_13h22.05.925,tilt_staircase,2023.2.3,None,2025-08-25 13h22.22.418159 -0400,
,,,,,,,,,,,,0,0,0,0,201.53785362499912,,,,,,,,,,,,,,,,,,,,,,,,,,,,,,,,,,,,,,,,,,,,,,,,,,,,,,,negc_poss,30,-15,15,-15,"[5, 2, 1, 0.5]",lin,1,1,8,2,19,108,down,0.5,1.0,201.5298611670005,1.0,30,201.53785362499912,202.03257024999766,202.03257024999766,202.1108345419998,202.1108345419998,202.1042705419968,202.9721144579962,0,,,,,,,,,,,,,,,eliza,0,2025-08-25_13h22.05.925,tilt_staircase,2023.2.3,None,2025-08-25 13h22.22.418159 -0400,
,,,,,,,,,,,,0,0,0,0,202.98062554199714,,,,,,,,,,,,,,,,,,,,,,,,,,,,,,,,,,,,,,,,,,,,,,,,,,,,,,,posc_poss,30,15,15,-15,"[5, 2, 1, 0.5]",lin,1,1,8,3,19,109,up,0.5,2.5,202.9723694169952,2.5,30,202.98062554199714,203.46596016699914,203.46596016699914,203.53835299999628,203.53835299999628,203.54601074999664,204.28871937499935,0,,,,,,,,,,,,,,,eliza,0,2025-08-25_13h22.05.925,tilt_staircase,2023.2.3,None,2025-08-25 13h22.22.418159 -0400,
,,,,,,,,,,,,0,0,0,0,204.29718391699862,,,,,,,,,,,,,,,,,,,,,,,,,,,,,,,,,,,,,,,,,,,,,,,,,,,,,,,posc_negs,30,15,15,-15,"[5, 2, 1, 0.5]",lin,1,1,8,1,19,110,down,0.5,-6.5,204.28896504199656,-6.5,-30,204.29718391699862,204.7812436249951,204.7812436249951,204.85479916699842,204.85479916699842,204.8623377499971,205.42282991699904,0,,,,,,,,,,,,,,,eliza,0,2025-08-25_13h22.05.925,tilt_staircase,2023.2.3,None,2025-08-25 13h22.22.418159 -0400,
,,,,,,,,,,,,0,0,0,0,205.43142079199606,,,,,,,,,,,,,,,,,,,,,,,,,,,,,,,,,,,,,,,,,,,,,,,,,,,,,,,negc_noss,30,-15,15,-15,"[5, 2, 1, 0.5]",lin,1,1,8,4,19,111,down,0.5,-1.5,205.42308587500156,-1.5,,205.43142079199606,205.92099287499877,205.92099287499877,205.99589466700127,205.99589466700127,205.99589466700127,206.84565862499585,0,,,,,,,,,,,,,,,eliza,0,2025-08-25_13h22.05.925,tilt_staircase,2023.2.3,None,2025-08-25 13h22.22.418159 -0400,
,,,,,,,,,,,,0,0,0,0,206.85379370799637,,,,,,,,,,,,,,,,,,,,,,,,,,,,,,,,,,,,,,,,,,,,,,,,,,,,,,,negc_negs,30,-15,15,-15,"[5, 2, 1, 0.5]",lin,1,1,8,0,19,112,down,0.5,-7.0,206.84586745799606,-7.0,-30,206.85379370799637,207.34861212499527,207.34861212499527,207.428580916996,207.428580916996,207.42159766700206,210.10531054199964,1,,,,,,,,,,,,,,,eliza,0,2025-08-25_13h22.05.925,tilt_staircase,2023.2.3,None,2025-08-25 13h22.22.418159 -0400,
,,,,,,,,,,,,0,0,0,0,210.11345150000125,,,,,,,,,,,,,,,,,,,,,,,,,,,,,,,,,,,,,,,,,,,,,,,,,,,,,,,posc_noss,30,15,15,-15,"[5, 2, 1, 0.5]",lin,1,1,8,5,19,113,down,0.5,-1.5,210.10552454199933,-1.5,,210.11345150000125,210.60144495799614,210.60144495799614,210.67816462500195,210.67816462500195,210.67816462500195,211.40540420799516,1,,,,,,,,,,,,,,,eliza,0,2025-08-25_13h22.05.925,tilt_staircase,2023.2.3,None,2025-08-25 13h22.22.418159 -0400,
,,,,,,,,,,,,0,0,0,0,211.41352358299628,,,,,,,,,,,,,,,,,,,,,,,,,,,,,,,,,,,,,,,,,,,,,,,,,,,,,,,posc_noss,30,15,15,-15,"[5, 2, 1, 0.5]",lin,1,1,8,5,20,114,down,0.5,-2.0,211.4056261250007,-2.0,,211.41352358299628,211.89907008299633,211.89907008299633,211.97793241700128,211.97793241700128,211.97793241700128,212.77244229200005,0,,,,,,,,,,,,,,,eliza,0,2025-08-25_13h22.05.925,tilt_staircase,2023.2.3,None,2025-08-25 13h22.22.418159 -0400,
,,,,,,,,,,,,0,0,0,0,212.78067695799837,,,,,,,,,,,,,,,,,,,,,,,,,,,,,,,,,,,,,,,,,,,,,,,,,,,,,,,negc_poss,30,-15,15,-15,"[5, 2, 1, 0.5]",lin,1,1,8,2,20,115,up,0.5,1.5,212.77265179200185,1.5,30,212.78067695799837,213.26617583299958,213.26617583299958,213.33832237499882,213.33832237499882,213.3460122079996,213.83979366700078,0,,,,,,,,,,,,,,,eliza,0,2025-08-25_13h22.05.925,tilt_staircase,2023.2.3,None,2025-08-25 13h22.22.418159 -0400,
,,,,,,,,,,,,0,0,0,0,213.84837462499854,,,,,,,,,,,,,,,,,,,,,,,,,,,,,,,,,,,,,,,,,,,,,,,,,,,,,,,negc_negs,30,-15,15,-15,"[5, 2, 1, 0.5]",lin,1,1,8,0,20,116,down,0.5,-7.5,213.84005241699924,-7.5,-30,213.84837462499854,214.33744429199578,214.33744429199578,214.4126893749999,214.4126893749999,214.4126893749999,214.98877929199807,0,,,,,,,,,,,,,,,eliza,0,2025-08-25_13h22.05.925,tilt_staircase,2023.2.3,None,2025-08-25 13h22.22.418159 -0400,
,,,,,,,,,,,,0,0,0,0,214.99720412500028,,,,,,,,,,,,,,,,,,,,,,,,,,,,,,,,,,,,,,,,,,,,,,,,,,,,,,,posc_negs,30,15,15,-15,"[5, 2, 1, 0.5]",lin,1,1,8,1,20,117,up,0.5,-6.0,214.9890272499979,-6.0,-30,214.99720412500028,215.48206799999753,215.48206799999753,215.5621417500006,215.5621417500006,215.5621417500006,216.22259225000016,0,,,,,,,,,,,,,,,eliza,0,2025-08-25_13h22.05.925,tilt_staircase,2023.2.3,None,2025-08-25 13h22.22.418159 -0400,
,,,,,,,,,,,,0,0,0,0,216.23085579199687,,,,,,,,,,,,,,,,,,,,,,,,,,,,,,,,,,,,,,,,,,,,,,,,,,,,,,,negc_noss,30,-15,15,-15,"[5, 2, 1, 0.5]",lin,1,1,8,4,20,118,up,0.5,-1.0,216.22280387499632,-1.0,,216.23085579199687,216.71625170799962,216.71625170799962,216.79533162499865,216.79533162499865,216.79533162499865,217.65567604199896,0,,,,,,,,,,,,,,,eliza,0,2025-08-25_13h22.05.925,tilt_staircase,2023.2.3,None,2025-08-25 13h22.22.418159 -0400,
,,,,,,,,,,,,0,0,0,0,217.66383762499754,,,,,,,,,,,,,,,,,,,,,,,,,,,,,,,,,,,,,,,,,,,,,,,,,,,,,,,posc_poss,30,15,15,-15,"[5, 2, 1, 0.5]",lin,1,1,8,3,20,119,up,0.5,3.0,217.65592691699567,3.0,30,217.66383762499754,218.14822954199917,218.14822954199917,218.2216131669993,218.2216131669993,218.22949074999633,218.98896166699706,0,,,,,,,,,,,,,,,eliza,0,2025-08-25_13h22.05.925,tilt_staircase,2023.2.3,None,2025-08-25 13h22.22.418159 -0400,
,,,,,,,,,,,,0,0,0,0,218.99738966699806,,,,,,,,,,,,,,,,,,,,,,,,,,,,,,,,,,,,,,,,,,,,,,,,,,,,,,,posc_noss,30,15,15,-15,"[5, 2, 1, 0.5]",lin,1,1,8,5,21,120,up,0.5,-1.5,218.9892255829982,-1.5,,218.99738966699806,219.48224916699837,219.48224916699837,219.56183512500138,219.56183512500138,219.56183512500138,220.35584237500007,0,,,,,,,,,,,,,,,eliza,0,2025-08-25_13h22.05.925,tilt_staircase,2023.2.3,None,2025-08-25 13h22.22.418159 -0400,
,,,,,,,,,,,,0,0,0,0,220.3643903330012,,,,,,,,,,,,,,,,,,,,,,,,,,,,,,,,,,,,,,,,,,,,,,,,,,,,,,,negc_poss,30,-15,15,-15,"[5, 2, 1, 0.5]",lin,1,1,8,2,21,121,up,0.5,2.0,220.35609279199707,2.0,30,220.3643903330012,220.84954279199883,220.84954279199883,220.92170837499725,220.92170837499725,220.92927387500094,221.4957577499954,0,,,,,,,,,,,,,,,eliza,0,2025-08-25_13h22.05.925,tilt_staircase,2023.2.3,None,2025-08-25 13h22.22.418159 -0400,
,,,,,,,,,,,,0,0,0,0,221.50406558300165,,,,,,,,,,,,,,,,,,,,,,,,,,,,,,,,,,,,,,,,,,,,,,,,,,,,,,,posc_poss,30,15,15,-15,"[5, 2, 1, 0.5]",lin,1,1,8,3,21,122,up,0.5,3.5,221.4959697919985,3.5,30,221.50406558300165,221.999306042002,221.999306042002,222.07117329199536,222.07117329199536,222.07117329199536,222.51285729200026,0,,,,,,,,,,,,,,,eliza,0,2025-08-25_13h22.05.925,tilt_staircase,2023.2.3,None,2025-08-25 13h22.22.418159 -0400,
,,,,,,,,,,,,0,0,0,0,222.52091558300162,,,,,,,,,,,,,,,,,,,,,,,,,,,,,,,,,,,,,,,,,,,,,,,,,,,,,,,posc_negs,30,15,15,-15,"[5, 2, 1, 0.5]",lin,1,1,8,1,21,123,up,0.5,-5.5,222.51310241699684,-5.5,-30,222.52091558300162,223.014604416996,223.014604416996,223.08775487499952,223.08775487499952,223.08775487499952,223.6555904170018,0,,,,,,,,,,,,,,,eliza,0,2025-08-25_13h22.05.925,tilt_staircase,2023.2.3,None,2025-08-25 13h22.22.418159 -0400,
,,,,,,,,,,,,0,0,0,0,223.66438054199534,,,,,,,,,,,,,,,,,,,,,,,,,,,,,,,,,,,,,,,,,,,,,,,,,,,,,,,negc_noss,30,-15,15,-15,"[5, 2, 1, 0.5]",lin,1,1,8,4,21,124,up,0.5,-0.5,223.65583499999775,-0.5,,223.66438054199534,224.14878691700142,224.14878691700142,224.2295839579965,224.2295839579965,224.2295839579965,224.82946074999927,0,,,,,,,,,,,,,,,eliza,0,2025-08-25_13h22.05.925,tilt_staircase,2023.2.3,None,2025-08-25 13h22.22.418159 -0400,
,,,,,,,,,,,,0,0,0,0,224.83768129199598,,,,,,,,,,,,,,,,,,,,,,,,,,,,,,,,,,,,,,,,,,,,,,,,,,,,,,,negc_negs,30,-15,15,-15,"[5, 2, 1, 0.5]",lin,1,1,8,0,21,125,up,0.5,-7.0,224.8297025829961,-7.0,-30,224.83768129199598,225.33216879199608,225.33216879199608,225.4111037920011,225.4111037920011,225.4045102500022,225.87933354199777,0,,,,,,,,,,,,,,,eliza,0,2025-08-25_13h22.05.925,tilt_staircase,2023.2.3,None,2025-08-25 13h22.22.418159 -0400,
,,,,,,,,,,,,0,0,0,0,225.88760862500203,,,,,,,,,,,,,,,,,,,,,,,,,,,,,,,,,,,,,,,,,,,,,,,,,,,,,,,posc_noss,30,15,15,-15,"[5, 2, 1, 0.5]",lin,1,1,8,5,22,126,up,0.5,-1.0,225.87955891699676,-1.0,,225.88760862500203,226.38263404199824,226.38263404199824,226.45453412499774,226.45453412499774,226.45453412499774,226.80588704199909,0,,,,,,,,,,,,,,,eliza,0,2025-08-25_13h22.05.925,tilt_staircase,2023.2.3,None,2025-08-25 13h22.22.418159 -0400,
,,,,,,,,,,,,0,0,0,0,226.81430383300176,,,,,,,,,,,,,,,,,,,,,,,,,,,,,,,,,,,,,,,,,,,,,,,,,,,,,,,negc_negs,30,-15,15,-15,"[5, 2, 1, 0.5]",lin,1,1,8,0,22,127,up,0.5,-6.5,226.80613079199975,-6.5,-30,226.81430383300176,227.2994854169956,227.2994854169956,227.37885729200207,227.37885729200207,227.37885729200207,227.63898587499716,0,,,,,,,,,,,,,,,eliza,0,2025-08-25_13h22.05.925,tilt_staircase,2023.2.3,None,2025-08-25 13h22.22.418159 -0400,
,,,,,,,,,,,,0,0,0,0,227.6470682500003,,,,,,,,,,,,,,,,,,,,,,,,,,,,,,,,,,,,,,,,,,,,,,,,,,,,,,,negc_poss,30,-15,15,-15,"[5, 2, 1, 0.5]",lin,1,1,8,2,22,128,up,0.5,2.5,227.63919120799983,2.5,30,227.6470682500003,228.13237166700128,228.13237166700128,228.21269649999886,228.21269649999886,228.21269649999886,228.8058840829981,0,,,,,,,,,,,,,,,eliza,0,2025-08-25_13h22.05.925,tilt_staircase,2023.2.3,None,2025-08-25 13h22.22.418159 -0400,
,,,,,,,,,,,,0,0,0,0,228.81423345799703,,,,,,,,,,,,,,,,,,,,,,,,,,,,,,,,,,,,,,,,,,,,,,,,,,,,,,,negc_noss,30,-15,15,-15,"[5, 2, 1, 0.5]",lin,1,1,8,4,22,129,up,0.5,0.0,228.80612866699812,0.0,,228.81423345799703,229.2993983330016,229.2993983330016,229.37915108299785,229.37915108299785,229.37915108299785,229.65599004199612,0,,,,,,,,,,,,,,,eliza,0,2025-08-25_13h22.05.925,tilt_staircase,2023.2.3,None,2025-08-25 13h22.22.418159 -0400,
,,,,,,,,,,,,0,0,0,0,229.6639670000004,,,,,,,,,,,,,,,,,,,,,,,,,,,,,,,,,,,,,,,,,,,,,,,,,,,,,,,posc_negs,30,15,15,-15,"[5, 2, 1, 0.5]",lin,1,1,8,1,22,130,up,0.5,-5.0,229.65619387500192,-5.0,-30,229.6639670000004,230.14902320799592,230.14902320799592,230.2217723329959,230.2217723329959,230.2298484999992,230.59600945800048,0,,,,,,,,,,,,,,,eliza,0,2025-08-25_13h22.05.925,tilt_staircase,2023.2.3,None,2025-08-25 13h22.22.418159 -0400,
,,,,,,,,,,,,0,0,0,0,230.60471962500014,,,,,,,,,,,,,,,,,,,,,,,,,,,,,,,,,,,,,,,,,,,,,,,,,,,,,,,posc_poss,30,15,15,-15,"[5, 2, 1, 0.5]",lin,1,1,8,3,22,131,up,0.5,4.0,230.59625504200085,4.0,30,230.60471962500014,231.0985478329967,231.0985478329967,231.17121999999654,231.17121999999654,231.17121999999654,231.59629912499804,0,,,,,,,,,,,,,,,eliza,0,2025-08-25_13h22.05.925,tilt_staircase,2023.2.3,None,2025-08-25 13h22.22.418159 -0400,
,,,,,,,,,,,,0,0,0,0,231.60417308299657,,,,,,,,,,,,,,,,,,,,,,,,,,,,,,,,,,,,,,,,,,,,,,,,,,,,,,,posc_poss,30,15,15,-15,"[5, 2, 1, 0.5]",lin,1,1,8,3,23,132,up,0.5,4.5,231.59652300000016,4.5,30,231.60417308299657,232.0988542499981,232.0988542499981,232.17129758300143,232.17129758300143,232.17129758300143,232.59635504199832,0,,,,,,,,,,,,,,,eliza,0,2025-08-25_13h22.05.925,tilt_staircase,2023.2.3,None,2025-08-25 13h22.22.418159 -0400,
,,,,,,,,,,,,0,0,0,0,232.6042006669959,,,,,,,,,,,,,,,,,,,,,,,,,,,,,,,,,,,,,,,,,,,,,,,,,,,,,,,posc_negs,30,15,15,-15,"[5, 2, 1, 0.5]",lin,1,1,8,1,23,133,up,0.5,-4.5,232.59656458300014,-4.5,-30,232.6042006669959,233.09843949999777,233.09843949999777,233.17128412499733,233.17128412499733,233.17128412499733,233.5795562919957,0,,,,,,,,,,,,,,,eliza,0,2025-08-25_13h22.05.925,tilt_staircase,2023.2.3,None,2025-08-25 13h22.22.418159 -0400,
,,,,,,,,,,,,0,0,0,0,233.587892208001,,,,,,,,,,,,,,,,,,,,,,,,,,,,,,,,,,,,,,,,,,,,,,,,,,,,,,,negc_poss,30,-15,15,-15,"[5, 2, 1, 0.5]",lin,1,1,8,2,23,134,up,0.5,3.0,233.57980237499578,3.0,30,233.587892208001,234.08205154199823,234.08205154199823,234.16125587499846,234.16125587499846,234.1545604999992,234.95589712500077,0,,,,,,,,,,,,,,,eliza,0,2025-08-25_13h22.05.925,tilt_staircase,2023.2.3,None,2025-08-25 13h22.22.418159 -0400,
,,,,,,,,,,,,0,0,0,0,234.96411287500086,,,,,,,,,,,,,,,,,,,,,,,,,,,,,,,,,,,,,,,,,,,,,,,,,,,,,,,negc_noss,30,-15,15,-15,"[5, 2, 1, 0.5]",lin,1,1,8,4,23,135,up,0.5,0.5,234.95614170799672,0.5,,234.96411287500086,235.448582332996,235.448582332996,235.52183766700182,235.52183766700182,235.52848391699808,236.11277145799977,0,,,,,,,,,,,,,,,eliza,0,2025-08-25_13h22.05.925,tilt_staircase,2023.2.3,None,2025-08-25 13h22.22.418159 -0400,
,,,,,,,,,,,,0,0,0,0,236.120762999999,,,,,,,,,,,,,,,,,,,,,,,,,,,,,,,,,,,,,,,,,,,,,,,,,,,,,,,negc_negs,30,-15,15,-15,"[5, 2, 1, 0.5]",lin,1,1,8,0,23,136,up,0.5,-6.0,236.1129766669983,-6.0,-30,236.120762999999,236.61525816699577,236.61525816699577,236.68791741699533,236.68791741699533,236.68791741699533,237.5394116669995,0,,,,,,,,,,,,,,,eliza,0,2025-08-25_13h22.05.925,tilt_staircase,2023.2.3,None,2025-08-25 13h22.22.418159 -0400,
,,,,,,,,,,,,0,0,0,0,237.54780495799787,,,,,,,,,,,,,,,,,,,,,,,,,,,,,,,,,,,,,,,,,,,,,,,,,,,,,,,posc_noss,30,15,15,-15,"[5, 2, 1, 0.5]",lin,1,1,8,5,23,137,up,0.5,-0.5,237.53966108299937,-0.5,,237.54780495799787,238.03224937499908,238.03224937499908,238.10481579200132,238.10481579200132,238.11337095799536,239.1630919579984,0,,,,,,,,,,,,,,,eliza,0,2025-08-25_13h22.05.925,tilt_staircase,2023.2.3,None,2025-08-25 13h22.22.418159 -0400,
,,,,,,,,,,,,0,0,0,0,239.1713054169959,,,,,,,,,,,,,,,,,,,,,,,,,,,,,,,,,,,,,,,,,,,,,,,,,,,,,,,negc_negs,30,-15,15,-15,"[5, 2, 1, 0.5]",lin,1,1,8,0,24,138,up,0.5,-5.5,239.16335570799856,-5.5,-30,239.1713054169959,239.66655908300163,239.66655908300163,239.74477616699733,239.74477616699733,239.73791133299528,240.39555599999585,0,,,,,,,,,,,,,,,eliza,0,2025-08-25_13h22.05.925,tilt_staircase,2023.2.3,None,2025-08-25 13h22.22.418159 -0400,
,,,,,,,,,,,,0,0,0,0,240.403873999996,,,,,,,,,,,,,,,,,,,,,,,,,,,,,,,,,,,,,,,,,,,,,,,,,,,,,,,negc_noss,30,-15,15,-15,"[5, 2, 1, 0.5]",lin,1,1,8,4,24,139,up,0.5,1.0,240.39577141699556,1.0,,240.403873999996,240.89936529199622,240.89936529199622,240.97134008300054,240.97134008300054,240.97134008300054,241.50627137500123,0,,,,,,,,,,,,,,,eliza,0,2025-08-25_13h22.05.925,tilt_staircase,2023.2.3,None,2025-08-25 13h22.22.418159 -0400,
,,,,,,,,,,,,0,0,0,0,241.51459116699698,,,,,,,,,,,,,,,,,,,,,,,,,,,,,,,,,,,,,,,,,,,,,,,,,,,,,,,negc_poss,30,-15,15,-15,"[5, 2, 1, 0.5]",lin,1,1,8,2,24,140,up,0.5,3.5,241.50652683299995,3.5,30,241.51459116699698,242.00584920799884,242.00584920799884,242.07929195799807,242.07929195799807,242.07929195799807,242.53953033300058,0,,,,,,,,,,,,,,,eliza,0,2025-08-25_13h22.05.925,tilt_staircase,2023.2.3,None,2025-08-25 13h22.22.418159 -0400,
,,,,,,,,,,,,0,0,0,0,242.54764129199611,,,,,,,,,,,,,,,,,,,,,,,,,,,,,,,,,,,,,,,,,,,,,,,,,,,,,,,posc_negs,30,15,15,-15,"[5, 2, 1, 0.5]",lin,1,1,8,1,24,141,up,0.5,-4.0,242.5397382500014,-4.0,-30,242.54764129199611,243.03776166700118,243.03776166700118,243.1131081249987,243.1131081249987,243.1131081249987,243.98970266700053,0,,,,,,,,,,,,,,,eliza,0,2025-08-25_13h22.05.925,tilt_staircase,2023.2.3,None,2025-08-25 13h22.22.418159 -0400,
,,,,,,,,,,,,0,0,0,0,243.998052541996,,,,,,,,,,,,,,,,,,,,,,,,,,,,,,,,,,,,,,,,,,,,,,,,,,,,,,,posc_noss,30,15,15,-15,"[5, 2, 1, 0.5]",lin,1,1,8,5,24,142,up,0.5,0.0,243.98995949999517,0.0,,243.998052541996,244.48867325000174,244.48867325000174,244.562689958002,244.562689958002,244.562689958002,244.9959402079985,0,,,,,,,,,,,,,,,eliza,0,2025-08-25_13h22.05.925,tilt_staircase,2023.2.3,None,2025-08-25 13h22.22.418159 -0400,
,,,,,,,,,,,,0,0,0,0,245.00410991699755,,,,,,,,,,,,,,,,,,,,,,,,,,,,,,,,,,,,,,,,,,,,,,,,,,,,,,,posc_poss,30,15,15,-15,"[5, 2, 1, 0.5]",lin,1,1,8,3,24,143,up,0.5,5.0,244.99618816699513,5.0,30,245.00410991699755,245.49863491699944,245.49863491699944,245.57137079200038,245.57137079200038,245.57137079200038,246.07275316699815,0,,,,,,,,,,,,,,,eliza,0,2025-08-25_13h22.05.925,tilt_staircase,2023.2.3,None,2025-08-25 13h22.22.418159 -0400,
,,,,,,,,,,,,0,0,0,0,246.08136925000144,,,,,,,,,,,,,,,,,,,,,,,,,,,,,,,,,,,,,,,,,,,,,,,,,,,,,,,negc_poss,30,-15,15,-15,"[5, 2, 1, 0.5]",lin,1,1,8,2,25,144,up,0.5,4.0,246.07301999999618,4.0,30,246.08136925000144,246.56585220799752,246.56585220799752,246.63859570799832,246.63859570799832,246.64670945800026,248.57959695799946,1,,,,,,,,,,,,,,,eliza,0,2025-08-25_13h22.05.925,tilt_staircase,2023.2.3,None,2025-08-25 13h22.22.418159 -0400,
,,,,,,,,,,,,0,0,0,0,248.5875005420021,,,,,,,,,,,,,,,,,,,,,,,,,,,,,,,,,,,,,,,,,,,,,,,,,,,,,,,posc_noss,30,15,15,-15,"[5, 2, 1, 0.5]",lin,1,1,8,5,25,145,up,0.5,0.5,248.57982891699794,0.5,,248.5875005420021,249.07252212499588,249.07252212499588,249.14452824999898,249.14452824999898,249.1546946669987,249.8126701250003,1,,,,,,,,,,,,,,,eliza,0,2025-08-25_13h22.05.925,tilt_staircase,2023.2.3,None,2025-08-25 13h22.22.418159 -0400,
,,,,,,,,,,,,0,0,0,0,249.8211460829989,,,,,,,,,,,,,,,,,,,,,,,,,,,,,,,,,,,,,,,,,,,,,,,,,,,,,,,negc_negs,30,-15,15,-15,"[5, 2, 1, 0.5]",lin,1,1,8,0,25,146,up,0.5,-5.0,249.8128734999991,-5.0,-30,249.8211460829989,250.30522395799926,250.30522395799926,250.37766091700178,250.37766091700178,250.38849995799683,250.805827917,1,,,,,,,,,,,,,,,eliza,0,2025-08-25_13h22.05.925,tilt_staircase,2023.2.3,None,2025-08-25 13h22.22.418159 -0400,
,,,,,,,,,,,,0,0,0,0,250.81421370799944,,,,,,,,,,,,,,,,,,,,,,,,,,,,,,,,,,,,,,,,,,,,,,,,,,,,,,,negc_noss,30,-15,15,-15,"[5, 2, 1, 0.5]",lin,1,1,8,4,25,147,up,0.5,1.5,250.80607937499735,1.5,,250.81421370799944,251.29867329199624,251.29867329199624,251.37197937499877,251.37197937499877,251.37985595799546,251.82289616699563,1,,,,,,,,,,,,,,,eliza,0,2025-08-25_13h22.05.925,tilt_staircase,2023.2.3,None,2025-08-25 13h22.22.418159 -0400,
,,,,,,,,,,,,0,0,0,0,251.83168920799653,,,,,,,,,,,,,,,,,,,,,,,,,,,,,,,,,,,,,,,,,,,,,,,,,,,,,,,posc_negs,30,15,15,-15,"[5, 2, 1, 0.5]",lin,1,1,8,1,25,148,up,0.5,-3.5,251.82322220799688,-3.5,-30,251.83168920799653,252.3217547919994,252.3217547919994,252.39617491699755,252.39617491699755,252.39617491699755,252.81387325000105,1,,,,,,,,,,,,,,,eliza,0,2025-08-25_13h22.05.925,tilt_staircase,2023.2.3,None,2025-08-25 13h22.22.418159 -0400,
,,,,,,,,,,,,0,0,0,0,252.82180733299901,,,,,,,,,,,,,,,,,,,,,,,,,,,,,,,,,,,,,,,,,,,,,,,,,,,,,,,posc_poss,30,15,15,-15,"[5, 2, 1, 0.5]",lin,1,1,8,3,25,149,up,0.5,5.5,252.81410295800015,5.5,30,252.82180733299901,253.31633566699747,253.31633566699747,253.39510187500127,253.39510187500127,253.3880054580004,253.71307458299998,1,,,,,,,,,,,,,,,eliza,0,2025-08-25_13h22.05.925,tilt_staircase,2023.2.3,None,2025-08-25 13h22.22.418159 -0400,
,,,,,,,,,,,,0,0,0,0,253.72101187500084,,,,,,,,,,,,,,,,,,,,,,,,,,,,,,,,,,,,,,,,,,,,,,,,,,,,,,,negc_poss,30,-15,15,-15,"[5, 2, 1, 0.5]",lin,1,1,8,2,26,150,down,0.5,3.5,253.7132973330008,3.5,30,253.72101187500084,254.21548758300196,254.21548758300196,254.28814158299792,254.28814158299792,254.28814158299792,254.67348779199529,1,,,,,,,,,,,,,,,eliza,0,2025-08-25_13h22.05.925,tilt_staircase,2023.2.3,None,2025-08-25 13h22.22.418159 -0400,
,,,,,,,,,,,,0,0,0,0,254.68214050000097,,,,,,,,,,,,,,,,,,,,,,,,,,,,,,,,,,,,,,,,,,,,,,,,,,,,,,,posc_poss,30,15,15,-15,"[5, 2, 1, 0.5]",lin,1,1,8,3,26,151,down,0.5,5.0,254.6737348329989,5.0,30,254.68214050000097,255.17160720800166,255.17160720800166,255.24583916700067,255.24583916700067,255.24583916700067,255.62263499999972,1,,,,,,,,,,,,,,,eliza,0,2025-08-25_13h22.05.925,tilt_staircase,2023.2.3,None,2025-08-25 13h22.22.418159 -0400,
,,,,,,,,,,,,0,0,0,0,255.63116674999765,,,,,,,,,,,,,,,,,,,,,,,,,,,,,,,,,,,,,,,,,,,,,,,,,,,,,,,posc_noss,30,15,15,-15,"[5, 2, 1, 0.5]",lin,1,1,8,5,26,152,down,0.5,0.0,255.6228799169985,0.0,,255.63116674999765,256.1164199170016,256.1164199170016,256.19701820799673,256.19701820799673,256.19701820799673,256.53020904200093,1,,,,,,,,,,,,,,,eliza,0,2025-08-25_13h22.05.925,tilt_staircase,2023.2.3,None,2025-08-25 13h22.22.418159 -0400,
,,,,,,,,,,,,0,0,0,0,256.5382891249974,,,,,,,,,,,,,,,,,,,,,,,,,,,,,,,,,,,,,,,,,,,,,,,,,,,,,,,posc_poss,30,15,15,-15,"[5, 2, 1, 0.5]",lin,1,1,8,3,27,153,down,0.5,4.5,256.53047445799893,4.5,30,256.5382891249974,257.0329308750006,257.0329308750006,257.1112191669963,257.1112191669963,257.1047336670017,257.63952699999936,1,,,,,,,,,,,,,,,eliza,0,2025-08-25_13h22.05.925,tilt_staircase,2023.2.3,None,2025-08-25 13h22.22.418159 -0400,
,,,,,,,,,,,,0,0,0,0,257.64807799999835,,,,,,,,,,,,,,,,,,,,,,,,,,,,,,,,,,,,,,,,,,,,,,,,,,,,,,,posc_noss,30,15,15,-15,"[5, 2, 1, 0.5]",lin,1,1,8,5,27,154,down,0.5,-0.5,257.63976737499615,-0.5,,257.64807799999835,258.1332542500022,258.1332542500022,258.2133844580021,258.2133844580021,258.2133844580021,258.60592404199997,1,,,,,,,,,,,,,,,eliza,0,2025-08-25_13h22.05.925,tilt_staircase,2023.2.3,None,2025-08-25 13h22.22.418159 -0400,
,,,,,,,,,,,,0,0,0,0,258.61424966699997,,,,,,,,,,,,,,,,,,,,,,,,,,,,,,,,,,,,,,,,,,,,,,,,,,,,,,,negc_poss,30,-15,15,-15,"[5, 2, 1, 0.5]",lin,1,1,8,2,27,155,down,0.5,3.0,258.60616641699744,3.0,30,258.61424966699997,259.0994705830017,259.0994705830017,259.17202995799744,259.17202995799744,259.17969029199594,259.5462012919961,1,,,,,,,,,,,,,,,eliza,0,2025-08-25_13h22.05.925,tilt_staircase,2023.2.3,None,2025-08-25 13h22.22.418159 -0400,
,,,,,,,,,,,,0,0,0,0,259.55457270799525,,,,,,,,,,,,,,,,,,,,,,,,,,,,,,,,,,,,,,,,,,,,,,,,,,,,,,,posc_poss,30,15,15,-15,"[5, 2, 1, 0.5]",lin,1,1,8,3,28,156,down,0.5,4.0,259.54642045799847,4.0,30,259.55457270799525,260.04927904199576,260.04927904199576,260.12878720799927,260.12878720799927,260.12142545799725,260.5288214999964,1,,,,,,,,,,,,,,,eliza,0,2025-08-25_13h22.05.925,tilt_staircase,2023.2.3,None,2025-08-25 13h22.22.418159 -0400,
,,,,,,,,,,,,0,0,0,0,260.53820308300055,,,,,,,,,,,,,,,,,,,,,,,,,,,,,,,,,,,,,,,,,,,,,,,,,,,,,,,posc_noss,30,15,15,-15,"[5, 2, 1, 0.5]",lin,1,1,8,5,28,157,down,0.5,-1.0,260.5290304579976,-1.0,,260.53820308300055,261.0328151249996,261.0328151249996,261.10478554199653,261.10478554199653,261.10478554199653,261.4396787500009,1,,,,,,,,,,,,,,,eliza,0,2025-08-25_13h22.05.925,tilt_staircase,2023.2.3,None,2025-08-25 13h22.22.418159 -0400,
,,,,,,,,,,,,0,0,0,0,261.4482183329965,,,,,,,,,,,,,,,,,,,,,,,,,,,,,,,,,,,,,,,,,,,,,,,,,,,,,,,negc_poss,30,-15,15,-15,"[5, 2, 1, 0.5]",lin,1,1,8,2,28,158,down,0.5,2.5,261.43991929199547,2.5,30,261.4482183329965,261.9387859999988,261.9387859999988,262.01215175000107,262.01215175000107,262.01215175000107,262.4394952500006,1,,,,,,,,,,,,,,,eliza,0,2025-08-25_13h22.05.925,tilt_staircase,2023.2.3,None,2025-08-25 13h22.22.418159 -0400,
,,,,,,,,,,,,0,0,0,0,262.44792216699716,,,,,,,,,,,,,,,,,,,,,,,,,,,,,,,,,,,,,,,,,,,,,,,,,,,,,,,posc_poss,30,15,15,-15,"[5, 2, 1, 0.5]",lin,1,1,8,3,29,159,down,0.5,3.5,262.43975683299504,3.5,30,262.44792216699716,262.93334245799633,262.93334245799633,263.01235350000206,263.01235350000206,263.01235350000206,263.61277895799867,0,,,,,,,,,,,,,,,eliza,0,2025-08-25_13h22.05.925,tilt_staircase,2023.2.3,None,2025-08-25 13h22.22.418159 -0400,
,,,,,,,,,,,,0,0,0,0,263.6209955419981,,,,,,,,,,,,,,,,,,,,,,,,,,,,,,,,,,,,,,,,,,,,,,,,,,,,,,,posc_noss,30,15,15,-15,"[5, 2, 1, 0.5]",lin,1,1,8,5,29,160,down,0.5,-1.5,263.61299020799925,-1.5,,263.6209955419981,264.11639787499735,264.11639787499735,264.194640624999,264.194640624999,264.1881123330022,264.77315624999756,0,,,,,,,,,,,,,,,eliza,0,2025-08-25_13h22.05.925,tilt_staircase,2023.2.3,None,2025-08-25 13h22.22.418159 -0400,
,,,,,,,,,,,,0,0,0,0,264.7813602499955,,,,,,,,,,,,,,,,,,,,,,,,,,,,,,,,,,,,,,,,,,,,,,,,,,,,,,,negc_poss,30,-15,15,-15,"[5, 2, 1, 0.5]",lin,1,1,8,2,29,161,down,0.5,2.0,264.7733676669959,2.0,30,264.7813602499955,265.2717495830002,265.2717495830002,265.344967457997,265.344967457997,265.344967457997,265.84608141699573,0,,,,,,,,,,,,,,,eliza,0,2025-08-25_13h22.05.925,tilt_staircase,2023.2.3,None,2025-08-25 13h22.22.418159 -0400,
,,,,,,,,,,,,0,0,0,0,265.854271958,,,,,,,,,,,,,,,,,,,,,,,,,,,,,,,,,,,,,,,,,,,,,,,,,,,,,,,posc_noss,30,15,15,-15,"[5, 2, 1, 0.5]",lin,1,1,8,5,30,162,up,0.5,-1.0,265.8463063329982,-1.0,,265.854271958,266.3480606669982,266.3480606669982,266.4215599169984,266.4215599169984,266.4215599169984,267.05647679200047,0,,,,,,,,,,,,,,,eliza,0,2025-08-25_13h22.05.925,tilt_staircase,2023.2.3,None,2025-08-25 13h22.22.418159 -0400,
,,,,,,,,,,,,0,0,0,0,267.0647894579961,,,,,,,,,,,,,,,,,,,,,,,,,,,,,,,,,,,,,,,,,,,,,,,,,,,,,,,posc_poss,30,15,15,-15,"[5, 2, 1, 0.5]",lin,1,1,8,3,30,163,up,0.5,4.0,267.05668933299603,4.0,30,267.0647894579961,267.5539917499991,267.5539917499991,267.62947383299615,267.62947383299615,267.62947383299615,268.49915533299645,1,,,,,,,,,,,,,,,eliza,0,2025-08-25_13h22.05.925,tilt_staircase,2023.2.3,None,2025-08-25 13h22.22.418159 -0400,
,,,,,,,,,,,,0,0,0,0,268.5048571669977,,,,,,,,,,,,,,,,,,,,,,,,,,,,,,,,,,,,,,,,,,,,,,,,,,,,,,,posc_noss,30,15,15,-15,"[5, 2, 1, 0.5]",lin,1,1,8,5,31,164,up,0.5,-0.5,268.4993806669954,-0.5,,268.5048571669977,268.99892604199704,268.99892604199704,269.071501917002,269.071501917002,269.071501917002,269.56347929199546,1,,,,,,,,,,,,,,,eliza,0,2025-08-25_13h22.05.925,tilt_staircase,2023.2.3,None,2025-08-25 13h22.22.418159 -0400,
,,,,,,,,,,,,1,0,1,0,324.45125025000016,,,,,,,,,,,,,,,,,,,,,,,,,,,,,,,,,,,,,,,,,,,,,,,,,,,,,,,posc_noss,30,15,15,-15,"[5, 2, 1, 0.5]",lin,1,1,8,5,1,0,start,5,15,324.44237941699976,15,,324.45125025000016,324.9342802079991,324.9342802079991,325.0124337919988,325.0124337919988,325.0053882919965,325.76418620799814,1,269.5636086250015,269.58836541699566,269.58836541699566,324.43004333299905,space,54.839673458001926,None,,,,,,,,eliza,0,2025-08-25_13h22.05.925,tilt_staircase,2023.2.3,None,2025-08-25 13h22.22.418159 -0400,
,,,,,,,,,,,,1,0,1,0,325.77243958300096,,,,,,,,,,,,,,,,,,,,,,,,,,,,,,,,,,,,,,,,,,,,,,,,,,,,,,,negc_poss,30,-15,15,-15,"[5, 2, 1, 0.5]",lin,1,1,8,2,1,1,start,5,-15,325.7644359170008,-15,30,325.77243958300096,326.2669512499997,326.2669512499997,326.3458011249968,326.3458011249968,326.3388172080013,326.8232242919985,0,,,,,,,,,,,,,,,eliza,0,2025-08-25_13h22.05.925,tilt_staircase,2023.2.3,None,2025-08-25 13h22.22.418159 -0400,
,,,,,,,,,,,,1,0,1,0,326.83169149999594,,,,,,,,,,,,,,,,,,,,,,,,,,,,,,,,,,,,,,,,,,,,,,,,,,,,,,,negc_negs,30,-15,15,-15,"[5, 2, 1, 0.5]",lin,1,1,8,0,1,2,start,5,-15,326.82348145799915,-15,-30,326.83169149999594,327.3156181250015,327.3156181250015,327.3892393329952,327.3892393329952,327.3965161669985,328.0901537919999,0,,,,,,,,,,,,,,,eliza,0,2025-08-25_13h22.05.925,tilt_staircase,2023.2.3,None,2025-08-25 13h22.22.418159 -0400,
,,,,,,,,,,,,1,0,1,0,328.09887804200116,,,,,,,,,,,,,,,,,,,,,,,,,,,,,,,,,,,,,,,,,,,,,,,,,,,,,,,posc_negs,30,15,15,-15,"[5, 2, 1, 0.5]",lin,1,1,8,1,1,3,start,5,15,328.0904059579989,15,-30,328.09887804200116,328.5830790830005,328.5830790830005,328.6637499999997,328.6637499999997,328.6637499999997,329.04707595799846,1,,,,,,,,,,,,,,,eliza,0,2025-08-25_13h22.05.925,tilt_staircase,2023.2.3,None,2025-08-25 13h22.22.418159 -0400,
,,,,,,,,,,,,1,0,1,0,329.0561118330006,,,,,,,,,,,,,,,,,,,,,,,,,,,,,,,,,,,,,,,,,,,,,,,,,,,,,,,posc_poss,30,15,15,-15,"[5, 2, 1, 0.5]",lin,1,1,8,3,1,4,start,5,15,329.04732183300075,15,30,329.0561118330006,329.5497706669994,329.5497706669994,329.622134792,329.622134792,329.622134792,330.1307997920012,1,,,,,,,,,,,,,,,eliza,0,2025-08-25_13h22.05.925,tilt_staircase,2023.2.3,None,2025-08-25 13h22.22.418159 -0400,
,,,,,,,,,,,,1,0,1,0,330.1394438329953,,,,,,,,,,,,,,,,,,,,,,,,,,,,,,,,,,,,,,,,,,,,,,,,,,,,,,,negc_noss,30,-15,15,-15,"[5, 2, 1, 0.5]",lin,1,1,8,4,1,5,start,5,-15,330.13104349999776,-15,,330.1394438329953,330.6340140829998,330.6340140829998,330.7124152499964,330.7124152499964,330.70542866699543,331.107125333001,0,,,,,,,,,,,,,,,eliza,0,2025-08-25_13h22.05.925,tilt_staircase,2023.2.3,None,2025-08-25 13h22.22.418159 -0400,
,,,,,,,,,,,,1,0,1,0,331.1152934999991,,,,,,,,,,,,,,,,,,,,,,,,,,,,,,,,,,,,,,,,,,,,,,,,,,,,,,,posc_poss,30,15,15,-15,"[5, 2, 1, 0.5]",lin,1,1,8,3,2,6,down,5,10,331.1073458749961,10,30,331.1152934999991,331.6057255830019,331.6057255830019,331.6806954999993,331.6806954999993,331.6806954999993,332.3069254169968,1,,,,,,,,,,,,,,,eliza,0,2025-08-25_13h22.05.925,tilt_staircase,2023.2.3,None,2025-08-25 13h22.22.418159 -0400,
,,,,,,,,,,,,1,0,1,0,332.3155394169953,,,,,,,,,,,,,,,,,,,,,,,,,,,,,,,,,,,,,,,,,,,,,,,,,,,,,,,posc_noss,30,15,15,-15,"[5, 2, 1, 0.5]",lin,1,1,8,5,2,7,down,5,10,332.30716595800186,10,,332.3155394169953,332.7997590419982,332.7997590419982,332.87277537499904,332.87277537499904,332.8805074580014,333.2460479579968,1,,,,,,,,,,,,,,,eliza,0,2025-08-25_13h22.05.925,tilt_staircase,2023.2.3,None,2025-08-25 13h22.22.418159 -0400,
,,,,,,,,,,,,1,0,1,0,333.25558129199635,,,,,,,,,,,,,,,,,,,,,,,,,,,,,,,,,,,,,,,,,,,,,,,,,,,,,,,negc_negs,30,-15,15,-15,"[5, 2, 1, 0.5]",lin,1,1,8,0,2,8,up,5,-10,333.2462497919987,-10,-30,333.25558129199635,333.73799000000145,333.73799000000145,333.8113792919976,333.8113792919976,333.82269220799935,334.4399466249961,0,,,,,,,,,,,,,,,eliza,0,2025-08-25_13h22.05.925,tilt_staircase,2023.2.3,None,2025-08-25 13h22.22.418159 -0400,
,,,,,,,,,,,,1,0,1,0,334.4483912919968,,,,,,,,,,,,,,,,,,,,,,,,,,,,,,,,,,,,,,,,,,,,,,,,,,,,,,,negc_noss,30,-15,15,-15,"[5, 2, 1, 0.5]",lin,1,1,8,4,2,9,up,5,-10,334.44018808299734,-10,,334.4483912919968,334.93425258299976,334.93425258299976,335.0134603749975,335.0134603749975,335.0134603749975,335.3640656669959,0,,,,,,,,,,,,,,,eliza,0,2025-08-25_13h22.05.925,tilt_staircase,2023.2.3,None,2025-08-25 13h22.22.418159 -0400,
,,,,,,,,,,,,1,0,1,0,335.37204166699667,,,,,,,,,,,,,,,,,,,,,,,,,,,,,,,,,,,,,,,,,,,,,,,,,,,,,,,negc_poss,30,-15,15,-15,"[5, 2, 1, 0.5]",lin,1,1,8,2,2,10,up,5,-10,335.364268749996,-10,30,335.37204166699667,335.8672910419991,335.8672910419991,335.94453108299786,335.94453108299786,335.9379201670017,336.356425375001,0,,,,,,,,,,,,,,,eliza,0,2025-08-25_13h22.05.925,tilt_staircase,2023.2.3,None,2025-08-25 13h22.22.418159 -0400,
,,,,,,,,,,,,1,0,1,0,336.36466470799496,,,,,,,,,,,,,,,,,,,,,,,,,,,,,,,,,,,,,,,,,,,,,,,,,,,,,,,posc_negs,30,15,15,-15,"[5, 2, 1, 0.5]",lin,1,1,8,1,2,11,down,5,10,336.35662633299944,10,-30,336.36466470799496,336.85011262499756,336.85011262499756,336.92275937499653,336.92275937499653,336.9306270829984,337.2801207500015,1,,,,,,,,,,,,,,,eliza,0,2025-08-25_13h22.05.925,tilt_staircase,2023.2.3,None,2025-08-25 13h22.22.418159 -0400,
,,,,,,,,,,,,1,0,1,0,337.28835587499634,,,,,,,,,,,,,,,,,,,,,,,,,,,,,,,,,,,,,,,,,,,,,,,,,,,,,,,negc_negs,30,-15,15,-15,"[5, 2, 1, 0.5]",lin,1,1,8,0,3,12,up,5,-5,337.2803439999989,-5,-30,337.28835587499634,337.78309291700134,337.78309291700134,337.8555513329993,337.8555513329993,337.8555513329993,338.4640379580014,1,,,,,,,,,,,,,,,eliza,0,2025-08-25_13h22.05.925,tilt_staircase,2023.2.3,None,2025-08-25 13h22.22.418159 -0400,
,,,,,,,,,,,,1,0,1,0,338.47226783299993,,,,,,,,,,,,,,,,,,,,,,,,,,,,,,,,,,,,,,,,,,,,,,,,,,,,,,,negc_poss,30,-15,15,-15,"[5, 2, 1, 0.5]",lin,1,1,8,2,3,13,up,5,-5,338.4642436669965,-5,30,338.47226783299993,338.96687754199957,338.96687754199957,339.0389528329979,339.0389528329979,339.0389528329979,339.3800829999964,0,,,,,,,,,,,,,,,eliza,0,2025-08-25_13h22.05.925,tilt_staircase,2023.2.3,None,2025-08-25 13h22.22.418159 -0400,
,,,,,,,,,,,,1,0,1,0,339.388800875,,,,,,,,,,,,,,,,,,,,,,,,,,,,,,,,,,,,,,,,,,,,,,,,,,,,,,,posc_noss,30,15,15,-15,"[5, 2, 1, 0.5]",lin,1,1,8,5,3,14,down,5,5,339.3803426250015,5,,339.388800875,339.88389387499774,339.88389387499774,339.9620724999986,339.9620724999986,339.9555759579962,340.30724375000136,1,,,,,,,,,,,,,,,eliza,0,2025-08-25_13h22.05.925,tilt_staircase,2023.2.3,None,2025-08-25 13h22.22.418159 -0400,
,,,,,,,,,,,,1,0,1,0,340.3157208749981,,,,,,,,,,,,,,,,,,,,,,,,,,,,,,,,,,,,,,,,,,,,,,,,,,,,,,,negc_noss,30,-15,15,-15,"[5, 2, 1, 0.5]",lin,1,1,8,4,3,15,up,5,-5,340.3074906670008,-5,,340.3157208749981,340.80666579199897,340.80666579199897,340.8807890829994,340.8807890829994,340.8807890829994,341.28123895799945,0,,,,,,,,,,,,,,,eliza,0,2025-08-25_13h22.05.925,tilt_staircase,2023.2.3,None,2025-08-25 13h22.22.418159 -0400,
,,,,,,,,,,,,1,0,1,0,341.28971974999877,,,,,,,,,,,,,,,,,,,,,,,,,,,,,,,,,,,,,,,,,,,,,,,,,,,,,,,posc_negs,30,15,15,-15,"[5, 2, 1, 0.5]",lin,1,1,8,1,3,16,down,5,5,341.2814422079973,5,-30,341.28971974999877,341.78384708299563,341.78384708299563,341.8629041249951,341.8629041249951,341.85561191699526,342.2237150000001,1,,,,,,,,,,,,,,,eliza,0,2025-08-25_13h22.05.925,tilt_staircase,2023.2.3,None,2025-08-25 13h22.22.418159 -0400,
,,,,,,,,,,,,1,0,1,0,342.2323458329993,,,,,,,,,,,,,,,,,,,,,,,,,,,,,,,,,,,,,,,,,,,,,,,,,,,,,,,posc_poss,30,15,15,-15,"[5, 2, 1, 0.5]",lin,1,1,8,3,3,17,down,5,5,342.2239594999992,5,30,342.2323458329993,342.7169829580016,342.7169829580016,342.796562208001,342.796562208001,342.796562208001,343.3472562079987,1,,,,,,,,,,,,,,,eliza,0,2025-08-25_13h22.05.925,tilt_staircase,2023.2.3,None,2025-08-25 13h22.22.418159 -0400,
,,,,,,,,,,,,1,0,1,0,343.355421207998,,,,,,,,,,,,,,,,,,,,,,,,,,,,,,,,,,,,,,,,,,,,,,,,,,,,,,,negc_noss,30,-15,15,-15,"[5, 2, 1, 0.5]",lin,1,1,8,4,4,18,up,5,0,343.3474725420019,0,,343.355421207998,343.84991425000044,343.84991425000044,343.9222845830009,343.9222845830009,343.9222845830009,344.37367537499813,1,,,,,,,,,,,,,,,eliza,0,2025-08-25_13h22.05.925,tilt_staircase,2023.2.3,None,2025-08-25 13h22.22.418159 -0400,
,,,,,,,,,,,,1,0,1,0,344.38222691699775,,,,,,,,,,,,,,,,,,,,,,,,,,,,,,,,,,,,,,,,,,,,,,,,,,,,,,,posc_poss,30,15,15,-15,"[5, 2, 1, 0.5]",lin,1,1,8,3,4,19,down,5,0,344.3739290829981,0,30,344.38222691699775,344.86702795799647,344.86702795799647,344.9468732499954,344.9468732499954,344.9468732499954,345.84652774999995,0,,,,,,,,,,,,,,,eliza,0,2025-08-25_13h22.05.925,tilt_staircase,2023.2.3,None,2025-08-25 13h22.22.418159 -0400,
,,,,,,,,,,,,1,0,1,0,345.8549979169984,,,,,,,,,,,,,,,,,,,,,,,,,,,,,,,,,,,,,,,,,,,,,,,,,,,,,,,negc_poss,30,-15,15,-15,"[5, 2, 1, 0.5]",lin,1,1,8,2,4,20,up,5,0,345.84677295800066,0,30,345.8549979169984,346.3389864580022,346.3389864580022,346.4116396669997,346.4116396669997,346.4228514999995,346.79040545799944,0,,,,,,,,,,,,,,,eliza,0,2025-08-25_13h22.05.925,tilt_staircase,2023.2.3,None,2025-08-25 13h22.22.418159 -0400,
,,,,,,,,,,,,1,0,1,0,346.7989173329988,,,,,,,,,,,,,,,,,,,,,,,,,,,,,,,,,,,,,,,,,,,,,,,,,,,,,,,posc_negs,30,15,15,-15,"[5, 2, 1, 0.5]",lin,1,1,8,1,4,21,down,5,0,346.7906423749955,0,-30,346.7989173329988,347.2837551670018,347.2837551670018,347.3629018749998,347.3629018749998,347.3629018749998,347.847487250001,1,,,,,,,,,,,,,,,eliza,0,2025-08-25_13h22.05.925,tilt_staircase,2023.2.3,None,2025-08-25 13h22.22.418159 -0400,
,,,,,,,,,,,,1,0,1,0,347.855324791999,,,,,,,,,,,,,,,,,,,,,,,,,,,,,,,,,,,,,,,,,,,,,,,,,,,,,,,negc_negs,30,-15,15,-15,"[5, 2, 1, 0.5]",lin,1,1,8,0,4,22,down,2,-7,347.8476896249995,-7,-30,347.855324791999,348.3499890419989,348.3499890419989,348.42959295799665,348.42959295799665,348.4224720419952,348.97401629199885,0,,,,,,,,,,,,,,,eliza,0,2025-08-25_13h22.05.925,tilt_staircase,2023.2.3,None,2025-08-25 13h22.22.418159 -0400,
,,,,,,,,,,,,1,0,1,0,348.9825702079979,,,,,,,,,,,,,,,,,,,,,,,,,,,,,,,,,,,,,,,,,,,,,,,,,,,,,,,posc_noss,30,15,15,-15,"[5, 2, 1, 0.5]",lin,1,1,8,5,4,23,down,5,0,348.97426716699556,0,,348.9825702079979,349.47190074999526,349.47190074999526,349.54735141700075,349.54735141700075,349.54735141700075,349.98072041699925,1,,,,,,,,,,,,,,,eliza,0,2025-08-25_13h22.05.925,tilt_staircase,2023.2.3,None,2025-08-25 13h22.22.418159 -0400,
,,,,,,,,,,,,1,0,1,0,349.9889795420022,,,,,,,,,,,,,,,,,,,,,,,,,,,,,,,,,,,,,,,,,,,,,,,,,,,,,,,posc_negs,30,15,15,-15,"[5, 2, 1, 0.5]",lin,1,1,8,1,5,24,down,5,-5,349.9809762079967,-5,-30,349.9889795420022,350.4832705419976,350.4832705419976,350.5556916669957,350.5556916669957,350.5556916669957,350.99980449999566,1,,,,,,,,,,,,,,,eliza,0,2025-08-25_13h22.05.925,tilt_staircase,2023.2.3,None,2025-08-25 13h22.22.418159 -0400,
,,,,,,,,,,,,1,0,1,0,351.00558587499836,,,,,,,,,,,,,,,,,,,,,,,,,,,,,,,,,,,,,,,,,,,,,,,,,,,,,,,negc_negs,30,-15,15,-15,"[5, 2, 1, 0.5]",lin,1,1,8,0,5,25,up,1,-6,351.00000695799827,-6,-30,351.00558587499836,351.5008531249987,351.5008531249987,351.57932379200065,351.57932379200065,351.57232579199626,352.2733781669958,0,,,,,,,,,,,,,,,eliza,0,2025-08-25_13h22.05.925,tilt_staircase,2023.2.3,None,2025-08-25 13h22.22.418159 -0400,
,,,,,,,,,,,,1,0,1,0,352.28142141699936,,,,,,,,,,,,,,,,,,,,,,,,,,,,,,,,,,,,,,,,,,,,,,,,,,,,,,,negc_noss,30,-15,15,-15,"[5, 2, 1, 0.5]",lin,1,1,8,4,5,26,down,2,-2,352.27358229200036,-2,,352.28142141699936,352.7667165000021,352.7667165000021,352.83956858299643,352.83956858299643,352.8475202080008,353.29723883300176,0,,,,,,,,,,,,,,,eliza,0,2025-08-25_13h22.05.925,tilt_staircase,2023.2.3,None,2025-08-25 13h22.22.418159 -0400,
,,,,,,,,,,,,1,0,1,0,353.3053803329967,,,,,,,,,,,,,,,,,,,,,,,,,,,,,,,,,,,,,,,,,,,,,,,,,,,,,,,negc_poss,30,-15,15,-15,"[5, 2, 1, 0.5]",lin,1,1,8,2,5,27,up,5,5,353.2974491249988,5,30,353.3053803329967,353.7998803750015,353.7998803750015,353.87239558299916,353.87239558299916,353.87239558299916,355.7808342079952,0,,,,,,,,,,,,,,,eliza,0,2025-08-25_13h22.05.925,tilt_staircase,2023.2.3,None,2025-08-25 13h22.22.418159 -0400,
,,,,,,,,,,,,1,0,1,0,355.7890183330019,,,,,,,,,,,,,,,,,,,,,,,,,,,,,,,,,,,,,,,,,,,,,,,,,,,,,,,posc_noss,30,15,15,-15,"[5, 2, 1, 0.5]",lin,1,1,8,5,5,28,down,5,-5,355.78107695799554,-5,,355.7890183330019,356.28357629200036,356.28357629200036,356.3557148749969,356.3557148749969,356.3557148749969,356.7669646669965,0,,,,,,,,,,,,,,,eliza,0,2025-08-25_13h22.05.925,tilt_staircase,2023.2.3,None,2025-08-25 13h22.22.418159 -0400,
,,,,,,,,,,,,1,0,1,0,356.7726043329967,,,,,,,,,,,,,,,,,,,,,,,,,,,,,,,,,,,,,,,,,,,,,,,,,,,,,,,posc_poss,30,15,15,-15,"[5, 2, 1, 0.5]",lin,1,1,8,3,5,29,up,2,2,356.7671702500011,2,30,356.7726043329967,357.2673657080013,357.2673657080013,357.34613583299506,357.34613583299506,357.33908279200114,357.71387833300105,0,,,,,,,,,,,,,,,eliza,0,2025-08-25_13h22.05.925,tilt_staircase,2023.2.3,None,2025-08-25 13h22.22.418159 -0400,
,,,,,,,,,,,,1,0,1,0,357.722012541999,,,,,,,,,,,,,,,,,,,,,,,,,,,,,,,,,,,,,,,,,,,,,,,,,,,,,,,negc_noss,30,-15,15,-15,"[5, 2, 1, 0.5]",lin,1,1,8,4,6,30,up,1,-1,357.71409962500184,-1,,357.722012541999,358.217161499997,358.217161499997,358.29607245799707,358.29607245799707,358.2890558750005,359.10708304199943,0,,,,,,,,,,,,,,,eliza,0,2025-08-25_13h22.05.925,tilt_staircase,2023.2.3,None,2025-08-25 13h22.22.418159 -0400,
,,,,,,,,,,,,1,0,1,0,359.1155116669979,,,,,,,,,,,,,,,,,,,,,,,,,,,,,,,,,,,,,,,,,,,,,,,,,,,,,,,negc_negs,30,-15,15,-15,"[5, 2, 1, 0.5]",lin,1,1,8,0,6,31,up,1,-5,359.1073319579955,-5,-30,359.1155116669979,359.59999199999584,359.59999199999584,359.67299091699533,359.67299091699533,359.6811004170013,360.1400544999997,1,,,,,,,,,,,,,,,eliza,0,2025-08-25_13h22.05.925,tilt_staircase,2023.2.3,None,2025-08-25 13h22.22.418159 -0400,
,,,,,,,,,,,,1,0,1,0,360.1481684169994,,,,,,,,,,,,,,,,,,,,,,,,,,,,,,,,,,,,,,,,,,,,,,,,,,,,,,,posc_noss,30,15,15,-15,"[5, 2, 1, 0.5]",lin,1,1,8,5,6,32,up,2,-3,360.1402860829985,-3,,360.1481684169994,360.63400262499636,360.63400262499636,360.7136498330001,360.7136498330001,360.7136498330001,361.4577725420022,0,,,,,,,,,,,,,,,eliza,0,2025-08-25_13h22.05.925,tilt_staircase,2023.2.3,None,2025-08-25 13h22.22.418159 -0400,
,,,,,,,,,,,,1,0,1,0,361.4658518329961,,,,,,,,,,,,,,,,,,,,,,,,,,,,,,,,,,,,,,,,,,,,,,,,,,,,,,,posc_poss,30,15,15,-15,"[5, 2, 1, 0.5]",lin,1,1,8,3,6,33,up,2,4,361.4579769580014,4,30,361.4658518329961,361.95687491699937,361.95687491699937,362.03046516700124,362.03046516700124,362.03046516700124,362.6135041250018,1,,,,,,,,,,,,,,,eliza,0,2025-08-25_13h22.05.925,tilt_staircase,2023.2.3,None,2025-08-25 13h22.22.418159 -0400,
,,,,,,,,,,,,1,0,1,0,362.622652041995,,,,,,,,,,,,,,,,,,,,,,,,,,,,,,,,,,,,,,,,,,,,,,,,,,,,,,,negc_poss,30,-15,15,-15,"[5, 2, 1, 0.5]",lin,1,1,8,2,6,34,up,5,10,362.6137125419991,10,30,362.622652041995,363.10686695799814,363.10686695799814,363.1790612920013,363.1790612920013,363.1894752500011,363.69053108299704,1,,,,,,,,,,,,,,,eliza,0,2025-08-25_13h22.05.925,tilt_staircase,2023.2.3,None,2025-08-25 13h22.22.418159 -0400,
,,,,,,,,,,,,1,0,1,0,363.6990099169998,,,,,,,,,,,,,,,,,,,,,,,,,,,,,,,,,,,,,,,,,,,,,,,,,,,,,,,posc_negs,30,15,15,-15,"[5, 2, 1, 0.5]",lin,1,1,8,1,6,35,down,5,-10,363.69077387500147,-10,-30,363.6990099169998,364.18402283299656,364.18402283299656,364.25642762499774,364.25642762499774,364.26435729199875,365.09075595800095,0,,,,,,,,,,,,,,,eliza,0,2025-08-25_13h22.05.925,tilt_staircase,2023.2.3,None,2025-08-25 13h22.22.418159 -0400,
,,,,,,,,,,,,1,0,1,0,365.0990057500021,,,,,,,,,,,,,,,,,,,,,,,,,,,,,,,,,,,,,,,,,,,,,,,,,,,,,,,negc_noss,30,-15,15,-15,"[5, 2, 1, 0.5]",lin,1,1,8,4,7,36,up,1,0,365.09098741699563,0,,365.0990057500021,365.589205749995,365.589205749995,365.6649543329986,365.6649543329986,365.6649543329986,366.21412895799585,1,,,,,,,,,,,,,,,eliza,0,2025-08-25_13h22.05.925,tilt_staircase,2023.2.3,None,2025-08-25 13h22.22.418159 -0400,
,,,,,,,,,,,,1,0,1,0,366.22251804199914,,,,,,,,,,,,,,,,,,,,,,,,,,,,,,,,,,,,,,,,,,,,,,,,,,,,,,,negc_negs,30,-15,15,-15,"[5, 2, 1, 0.5]",lin,1,1,8,0,7,37,down,0.5,-5.5,366.21439779199864,-5.5,-30,366.22251804199914,366.71723070799635,366.71723070799635,366.79605312499916,366.79605312499916,366.7891393329992,367.40699887499795,1,,,,,,,,,,,,,,,eliza,0,2025-08-25_13h22.05.925,tilt_staircase,2023.2.3,None,2025-08-25 13h22.22.418159 -0400,
,,,,,,,,,,,,1,0,1,0,367.41535629199643,,,,,,,,,,,,,,,,,,,,,,,,,,,,,,,,,,,,,,,,,,,,,,,,,,,,,,,posc_poss,30,15,15,-15,"[5, 2, 1, 0.5]",lin,1,1,8,3,7,38,down,1,3,367.4072472080006,3,30,367.41535629199643,367.9000221249953,367.9000221249953,367.97310083299817,367.97310083299817,367.98119191699516,368.55779591699684,1,,,,,,,,,,,,,,,eliza,0,2025-08-25_13h22.05.925,tilt_staircase,2023.2.3,None,2025-08-25 13h22.22.418159 -0400,
,,,,,,,,,,,,1,0,1,0,368.56606679200195,,,,,,,,,,,,,,,,,,,,,,,,,,,,,,,,,,,,,,,,,,,,,,,,,,,,,,,posc_noss,30,15,15,-15,"[5, 2, 1, 0.5]",lin,1,1,8,5,7,39,up,2,-1,368.5580491669971,-1,,368.56606679200195,369.05563537499984,369.05563537499984,369.13020266700187,369.13020266700187,369.13020266700187,369.66376987499825,1,,,,,,,,,,,,,,,eliza,0,2025-08-25_13h22.05.925,tilt_staircase,2023.2.3,None,2025-08-25 13h22.22.418159 -0400,
,,,,,,,,,,,,1,0,1,0,369.6718149579974,,,,,,,,,,,,,,,,,,,,,,,,,,,,,,,,,,,,,,,,,,,,,,,,,,,,,,,posc_negs,30,15,15,-15,"[5, 2, 1, 0.5]",lin,1,1,8,1,7,40,up,2,-8,369.66397324999707,-8,-30,369.6718149579974,370.1679819580022,370.1679819580022,370.2457464170002,370.2457464170002,370.2392408329979,370.6904982080014,1,,,,,,,,,,,,,,,eliza,0,2025-08-25_13h22.05.925,tilt_staircase,2023.2.3,None,2025-08-25 13h22.22.418159 -0400,
,,,,,,,,,,,,1,0,1,0,370.6993315419968,,,,,,,,,,,,,,,,,,,,,,,,,,,,,,,,,,,,,,,,,,,,,,,,,,,,,,,negc_poss,30,-15,15,-15,"[5, 2, 1, 0.5]",lin,1,1,8,2,7,41,down,2,8,370.69074716699834,8,30,370.6993315419968,371.18432854199636,371.18432854199636,371.263435791996,371.263435791996,371.263435791996,371.763948916996,1,,,,,,,,,,,,,,,eliza,0,2025-08-25_13h22.05.925,tilt_staircase,2023.2.3,None,2025-08-25 13h22.22.418159 -0400,
,,,,,,,,,,,,1,0,1,0,371.77203558299516,,,,,,,,,,,,,,,,,,,,,,,,,,,,,,,,,,,,,,,,,,,,,,,,,,,,,,,posc_noss,30,15,15,-15,"[5, 2, 1, 0.5]",lin,1,1,8,5,8,42,down,1,-2,371.76416620799864,-2,,371.77203558299516,372.2666428329976,372.2666428329976,372.3392241670008,372.3392241670008,372.3392241670008,372.90711395799735,1,,,,,,,,,,,,,,,eliza,0,2025-08-25_13h22.05.925,tilt_staircase,2023.2.3,None,2025-08-25 13h22.22.418159 -0400,
,,,,,,,,,,,,1,0,1,0,372.91559108300135,,,,,,,,,,,,,,,,,,,,,,,,,,,,,,,,,,,,,,,,,,,,,,,,,,,,,,,negc_poss,30,-15,15,-15,"[5, 2, 1, 0.5]",lin,1,1,8,2,8,43,down,2,6,372.9073556250005,6,30,372.91559108300135,373.4011380000011,373.4011380000011,373.4808256249962,373.4808256249962,373.4808256249962,374.0907149170016,1,,,,,,,,,,,,,,,eliza,0,2025-08-25_13h22.05.925,tilt_staircase,2023.2.3,None,2025-08-25 13h22.22.418159 -0400,
,,,,,,,,,,,,1,0,1,0,374.099487624997,,,,,,,,,,,,,,,,,,,,,,,,,,,,,,,,,,,,,,,,,,,,,,,,,,,,,,,negc_noss,30,-15,15,-15,"[5, 2, 1, 0.5]",lin,1,1,8,4,8,44,down,0.5,-0.5,374.0909597919963,-0.5,,374.099487624997,374.58401154199964,374.58401154199964,374.6631811249972,374.6631811249972,374.6631811249972,376.5637548329978,1,,,,,,,,,,,,,,,eliza,0,2025-08-25_13h22.05.925,tilt_staircase,2023.2.3,None,2025-08-25 13h22.22.418159 -0400,
,,,,,,,,,,,,1,0,1,0,376.5720388749978,,,,,,,,,,,,,,,,,,,,,,,,,,,,,,,,,,,,,,,,,,,,,,,,,,,,,,,negc_negs,30,-15,15,-15,"[5, 2, 1, 0.5]",lin,1,1,8,0,8,45,down,0.5,-6.0,376.5639717919985,-6.0,-30,376.5720388749978,377.0666109169979,377.0666109169979,377.1393610000014,377.1393610000014,377.1393610000014,377.7072242919967,0,,,,,,,,,,,,,,,eliza,0,2025-08-25_13h22.05.925,tilt_staircase,2023.2.3,None,2025-08-25 13h22.22.418159 -0400,
,,,,,,,,,,,,1,0,1,0,377.71554487499816,,,,,,,,,,,,,,,,,,,,,,,,,,,,,,,,,,,,,,,,,,,,,,,,,,,,,,,posc_poss,30,15,15,-15,"[5, 2, 1, 0.5]",lin,1,1,8,3,8,46,down,1,2,377.7074351249976,2,30,377.71554487499816,378.20026262499596,378.20026262499596,378.2732618750015,378.2732618750015,378.28095787500206,378.79761524999776,0,,,,,,,,,,,,,,,eliza,0,2025-08-25_13h22.05.925,tilt_staircase,2023.2.3,None,2025-08-25 13h22.22.418159 -0400,
,,,,,,,,,,,,1,0,1,0,378.8056882919991,,,,,,,,,,,,,,,,,,,,,,,,,,,,,,,,,,,,,,,,,,,,,,,,,,,,,,,posc_negs,30,15,15,-15,"[5, 2, 1, 0.5]",lin,1,1,8,1,8,47,down,1,-9,378.79788095800177,-9,-30,378.8056882919991,379.3007992499988,379.3007992499988,379.37962675000017,379.37962675000017,379.3725771249956,380.0071119579952,0,,,,,,,,,,,,,,,eliza,0,2025-08-25_13h22.05.925,tilt_staircase,2023.2.3,None,2025-08-25 13h22.22.418159 -0400,
,,,,,,,,,,,,1,0,1,0,380.0158131249991,,,,,,,,,,,,,,,,,,,,,,,,,,,,,,,,,,,,,,,,,,,,,,,,,,,,,,,posc_negs,30,15,15,-15,"[5, 2, 1, 0.5]",lin,1,1,8,1,9,48,up,0.5,-8.5,380.0074079170008,-8.5,-30,380.0158131249991,380.49990091699874,380.49990091699874,380.57322870799544,380.57322870799544,380.5811021249974,381.1239564169955,0,,,,,,,,,,,,,,,eliza,0,2025-08-25_13h22.05.925,tilt_staircase,2023.2.3,None,2025-08-25 13h22.22.418159 -0400,
,,,,,,,,,,,,1,0,1,0,381.1324247079974,,,,,,,,,,,,,,,,,,,,,,,,,,,,,,,,,,,,,,,,,,,,,,,,,,,,,,,negc_poss,30,-15,15,-15,"[5, 2, 1, 0.5]",lin,1,1,8,2,9,49,down,2,4,381.1242152920022,4,30,381.1324247079974,381.6168170000019,381.6168170000019,381.6899163749986,381.6899163749986,381.6980652919956,382.3905299580001,0,,,,,,,,,,,,,,,eliza,0,2025-08-25_13h22.05.925,tilt_staircase,2023.2.3,None,2025-08-25 13h22.22.418159 -0400,
