center,surround,correct,thisN,thisTrialN,thisRepN,key_resp_3.keys,key_resp_3.corr,key_resp_3.rt,key_resp_3.duration,opacity,key_resp_4.keys,key_resp_4.corr,key_resp_4.rt,key_resp_4.duration,practice_no_time.thisRepN,practice_no_time.thisTrialN,practice_no_time.thisN,practice_no_time.thisIndex,practice_timed.thisRepN,practice_timed.thisTrialN,practice_timed.thisN,practice_timed.thisIndex,blocks.thisRepN,blocks.thisTrialN,blocks.thisN,blocks.thisIndex,thisRow.t,notes,instr.started,text_5.started,key_resp_2.started,instr.stopped,key_resp_2.keys,key_resp_2.rt,key_resp_2.duration,instr2.started,text_6.started,key_resp_6.started,instr2.stopped,key_resp_6.keys,key_resp_6.rt,key_resp_6.duration,practice_trial.started,key_resp_3.started,surround_practice.started,center_practice.started,text_11.started,surround_practice.stopped,center_practice.stopped,practice_trial.stopped,practice_no_time.key_resp_3.keys,practice_no_time.key_resp_3.corr,practice_no_time.key_resp_3.rt,practice_no_time.key_resp_3.duration,practice_feedback.started,text_7.started,practice_feedback.stopped,text_7.stopped,instr3.started,text_8.started,key_resp_5.started,instr3.stopped,key_resp_5.keys,key_resp_5.rt,key_resp_5.duration,practice_trial_timed.started,key_resp_4.started,surround_practice_2.started,center_practice_2.started,surround_practice_2.stopped,center_practice_2.stopped,text_12.started,practice_trial_timed.stopped,practice_timed.key_resp_4.keys,practice_timed.key_resp_4.corr,practice_timed.key_resp_4.rt,practice_timed.key_resp_4.duration,start_instr.started,text_13.started,key_resp_8.started,start_instr.stopped,key_resp_8.keys,key_resp_8.rt,key_resp_8.duration,trials.label,trials.nReps,trials.startVal,trials.maxVal,trials.minVal,trials.stepSizes,trials.stepType,trials.nUp,trials.nDown,trials.nReversals,trials.thisIndex,trials.thisRepN,trials.thisN,trials.direction,trials.stepSize,trials.intensity,center_angle,surround_angle,trial.started,resp.started,surround_grating.started,center_grating.started,text_3.started,surround_grating.stopped,center_grating.stopped,trial.stopped,trials.response,break_2.started,text_14.started,key_resp_9.started,break_2.stopped,blocks.key_resp_9.keys,blocks.key_resp_9.rt,blocks.key_resp_9.duration,end.started,text_4.started,key_resp.started,end.stopped,key_resp.keys,key_resp.rt,key_resp.duration,sub,ses,date,expName,psychopyVersion,frameRate,expStart,
,,,,,,,,,,,,,,,,,,,,,,,,,,,,,0.008513249998941319,0.016510416997334687,0.016510416997334687,1148.3204937919982,space,1148.2593824169999,None,,,,,,,,,,,,,,,,,,,,,,,,,,,,,,,,,,,,,,,,,,,,,,,,,,,,,,,,,,,,,,,,,,,,,,,,,,,,,,,,,,,,,,,,,,,21049999,0,2025-10-17_10h44.28.208,tilt_staircase,2024.2.4,120.34641764341205,2025-10-17 10h44.51.975870 -0400,
,,,,,,,,,,,,,,,,,,,,,,,,,,,,,,,,,,,,1148.320576541999,1148.3360726669998,1148.3360726669998,1155.954469291999,space,7.607552000001306,None,,,,,,,,,,,,,,,,,,,,,,,,,,,,,,,,,,,,,,,,,,,,,,,,,,,,,,,,,,,,,,,,,,,,,,,,,,,,,,,,,,,,21049999,0,2025-10-17_10h44.28.208,tilt_staircase,2024.2.4,120.34641764341205,2025-10-17 10h44.51.975870 -0400,
30,0,right,0,0,0,right,1,8.497885582997696,None,,,,,,0,0,0,0,,,,,,,,,1155.9774183329973,,,,,,,,,,,,,,,,1155.9685763749985,1155.9774183329973,1156.4593509579972,1156.4593509579972,1157.4516351249986,1157.4581310419999,1157.4581310419999,1164.477742707997,right,1,8.497885582997696,None,1164.4828950419978,1164.540191917,1165.9860420829973,,,,,,,,,,,,,,,,,,,,,,,,,,,,,,,,,,,,,,,,,,,,,,,,,,,,,,,,,,,,,,,,,,,,,21049999,0,2025-10-17_10h44.28.208,tilt_staircase,2024.2.4,120.34641764341205,2025-10-17 10h44.51.975870 -0400,
-30,0,left,1,1,0,left,1,2.8109984580005403,None,,,,,,0,1,1,1,,,,,,,,,1165.993187958,,,,,,,,,,,,,,,,1165.987350042,1165.993187958,1166.4772338330004,1166.4772338330004,1167.4755862079983,1167.4755862079983,1167.4755862079983,1168.810580333,left,1,2.8109984580005403,None,1168.8106939579993,1168.8191543329995,1170.303242957998,1170.3102600829989,,,,,,,,,,,,,,,,,,,,,,,,,,,,,,,,,,,,,,,,,,,,,,,,,,,,,,,,,,,,,,,,,,,,21049999,0,2025-10-17_10h44.28.208,tilt_staircase,2024.2.4,120.34641764341205,2025-10-17 10h44.51.975870 -0400,
30,60,right,2,2,0,right,1,3.481362624999747,None,,,,,,0,2,2,2,,,,,,,,,1170.3102600829989,,,,,,,,,,,,,,,,1170.304568042,1170.3102600829989,1170.8115102079973,1170.8115102079973,1171.808793332999,1171.808793332999,1171.808793332999,1173.793974207998,right,1,3.481362624999747,None,1173.7941012919982,1173.8024595829993,1175.2868374169993,1175.2938457499986,,,,,,,,,,,,,,,,,,,,,,,,,,,,,,,,,,,,,,,,,,,,,,,,,,,,,,,,,,,,,,,,,,,,21049999,0,2025-10-17_10h44.28.208,tilt_staircase,2024.2.4,120.34641764341205,2025-10-17 10h44.51.975870 -0400,
-30,-60,left,3,3,0,left,1,2.0550642079979298,None,,,,,,0,3,3,3,,,,,,,,,1175.2938457499986,,,,,,,,,,,,,,,,1175.288088666999,1175.2938457499986,1175.7944628749974,1175.7944628749974,1176.7857320000003,1176.7921019999994,1176.7921019999994,1177.3548737499987,left,1,2.0550642079979298,None,1177.354989749998,1177.3636272919975,1178.8535038749978,1178.8615040829973,,,,,,,,,,,,,,,,,,,,,,,,,,,,,,,,,,,,,,,,,,,,,,,,,,,,,,,,,,,,,,,,,,,,21049999,0,2025-10-17_10h44.28.208,tilt_staircase,2024.2.4,120.34641764341205,2025-10-17 10h44.51.975870 -0400,
,,,,,,,,,,,,,,,,,,,,,,,,,,,,,,,,,,,,,,,,,,,,,,,,,,,,,,,,,,,1178.8536917499987,1178.8615040829973,1178.8615040829973,1208.140335,space,29.2763654579976,None,,,,,,,,,,,,,,,,,,,,,,,,,,,,,,,,,,,,,,,,,,,,,,,,,,,,,,,,,,,,,21049999,0,2025-10-17_10h44.28.208,tilt_staircase,2024.2.4,120.34641764341205,2025-10-17 10h44.51.975870 -0400,
-30,-60,left,0,0,0,,,,,100,left,1,2.135534208999161,None,,,,,0,0,0,0,,,,,1208.1573936669993,,,,,,,,,,,,,,,,,,,,,,,,,,,,1210.295538167,1210.303906582998,1211.7885178750003,1211.7948520829996,,,,,,,,1208.148752666999,1208.1573936669993,1208.640638249999,1208.640638249999,1208.7119255420002,1208.7119255420002,1208.7119255420002,1210.2953973749973,left,1,2.135534208999161,None,,,,,,,,,,,,,,,,,,,,,,,,,,,,,,,,,,,,,,,,,,,,,,,,,21049999,0,2025-10-17_10h44.28.208,tilt_staircase,2024.2.4,120.34641764341205,2025-10-17 10h44.51.975870 -0400,
-30,0,left,1,1,0,,,,,100,left,1,1.0420293749994016,None,,,,,0,1,1,1,,,,,1211.7948520829996,,,,,,,,,,,,,,,,,,,,,,,,,,,,1212.8400244999975,1212.8492617919983,1214.3381558330002,1214.3441243749985,,,,,,,,1211.7891895829998,1211.7948520829996,1212.296071875,1212.296071875,1212.3702783749977,1212.3702783749977,1212.3702783749977,1212.839831166999,left,1,1.0420293749994016,None,,,,,,,,,,,,,,,,,,,,,,,,,,,,,,,,,,,,,,,,,,,,,,,,,21049999,0,2025-10-17_10h44.28.208,tilt_staircase,2024.2.4,120.34641764341205,2025-10-17 10h44.51.975870 -0400,
30,60,right,2,2,0,,,,,100,right,1,1.0100224589987192,None,,,,,0,2,2,2,,,,,1214.3441243749985,,,,,,,,,,,,,,,,,,,,,,,,,,,,1215.3568258329979,1215.3654750829992,1216.8550544169993,1216.8615878749988,,,,,,,,1214.3387078749984,1214.3441243749985,1214.8371144999983,1214.8371144999983,1214.9107073749983,1214.9107073749983,1214.9107073749983,1215.3566889579997,right,1,1.0100224589987192,None,,,,,,,,,,,,,,,,,,,,,,,,,,,,,,,,,,,,,,,,,,,,,,,,,21049999,0,2025-10-17_10h44.28.208,tilt_staircase,2024.2.4,120.34641764341205,2025-10-17 10h44.51.975870 -0400,
30,0,right,3,3,0,,,,,100,right,1,1.0203057079997961,None,,,,,0,3,3,3,,,,,1216.8615878749988,,,,,,,,,,,,,,,,,,,,,,,,,,,,1217.8899334579983,1217.898761458,1219.3883830829982,1219.394378916997,,,,,,,,1216.8556399169975,1216.8615878749988,1217.353898207999,1217.353898207999,1217.4267359999976,1217.4267359999976,1217.4267359999976,1217.8897632499975,right,1,1.0203057079997961,None,,,,,,,,,,,,,,,,,,,,,,,,,,,,,,,,,,,,,,,,,,,,,,,,,21049999,0,2025-10-17_10h44.28.208,tilt_staircase,2024.2.4,120.34641764341205,2025-10-17 10h44.51.975870 -0400,
-30,69,left,4,4,0,,,,,0,left,1,0.8948471250005241,None,,,,,0,4,4,4,,,,,1219.394378916997,,,,,,,,,,,,,,,,,,,,,,,,,,,,1220.296352999998,1220.3048691250006,1221.7884417919995,1221.794364041998,,,,,,,,1219.3889065829972,1219.394378916997,1219.8873954579976,1219.8873954579976,1219.961414999998,1219.961414999998,1219.961414999998,1220.2962242499998,left,1,0.8948471250005241,None,,,,,,,,,,,,,,,,,,,,,,,,,,,,,,,,,,,,,,,,,,,,,,,,,21049999,0,2025-10-17_10h44.28.208,tilt_staircase,2024.2.4,120.34641764341205,2025-10-17 10h44.51.975870 -0400,
30,69,right,5,5,0,,,,,0,right,1,0.9016277089976938,None,,,,,0,5,5,5,,,,,1221.794364041998,,,,,,,,,,,,,,,,,,,,,,,,,,,,1222.706844207998,1222.715565167,1224.2053489169994,1224.2127523329982,,,,,,,,1221.788974125,1221.794364041998,1222.2959546249986,1222.2959546249986,1222.3712868749972,1222.3712868749972,1222.3712868749972,1222.7067223329977,right,1,0.9016277089976938,None,,,,,,,,,,,,,,,,,,,,,,,,,,,,,,,,,,,,,,,,,,,,,,,,,21049999,0,2025-10-17_10h44.28.208,tilt_staircase,2024.2.4,120.34641764341205,2025-10-17 10h44.51.975870 -0400,
,,,,,,,,,,,,,,,,,,,,,,,,,,,,,,,,,,,,,,,,,,,,,,,,,,,,,,,,,,,,,,,,,,,,,,,,,,,,,,1224.2055177080001,1224.2127523329982,1224.2127523329982,1254.6800015829976,space,30.461791208999784,None,,,,,,,,,,,,,,,,,,,,,,,,,,,,,,,,,,,,,,,,,,21049999,0,2025-10-17_10h44.28.208,tilt_staircase,2024.2.4,120.34641764341205,2025-10-17 10h44.51.975870 -0400,
,,,0,0,0,,,,,,,,,,,,,,,,,,0,0,0,0,1254.811989124999,,,,,,,,,,,,,,,,,,,,,,,,,,,,,,,,,,,,,,,,,,,,,,,,,,,,,,,,,,negc_poss,30,-15,15,-15,"[5, 2, 1, 0.5]",lin,1,1,8,2,1,0,start,5,-15,-15,30,1254.8058082079988,1254.811989124999,1255.1862827499972,1255.1862827499972,1255.2541994579988,1255.2595061249995,1255.2595061249995,1255.8064516249979,0,,,,,,,,,,,,,,,21049999,0,2025-10-17_10h44.28.208,tilt_staircase,2024.2.4,120.34641764341205,2025-10-17 10h44.51.975870 -0400,
,,,0,0,0,,,,,,,,,,,,,,,,,,0,0,0,0,1255.8124875419999,,,,,,,,,,,,,,,,,,,,,,,,,,,,,,,,,,,,,,,,,,,,,,,,,,,,,,,,,,posc_negs,30,15,15,-15,"[5, 2, 1, 0.5]",lin,1,1,8,1,1,1,start,5,15,15,-30,1255.8069096250001,1255.8124875419999,1256.2982550419983,1256.2982550419983,1256.3789502919972,1256.3724714169985,1256.3724714169985,1256.747241707999,1,,,,,,,,,,,,,,,21049999,0,2025-10-17_10h44.28.208,tilt_staircase,2024.2.4,120.34641764341205,2025-10-17 10h44.51.975870 -0400,
,,,0,0,0,,,,,,,,,,,,,,,,,,0,0,0,0,1256.7720809169987,,,,,,,,,,,,,,,,,,,,,,,,,,,,,,,,,,,,,,,,,,,,,,,,,,,,,,,,,,posc_noss,30,15,15,-15,"[5, 2, 1, 0.5]",lin,1,1,8,5,1,2,start,5,15,15,,1256.7483901669984,1256.7720809169987,1257.2474640830005,1257.2474640830005,1257.3224452499999,1257.3224452499999,1257.3224452499999,1257.7910418749998,1,,,,,,,,,,,,,,,21049999,0,2025-10-17_10h44.28.208,tilt_staircase,2024.2.4,120.34641764341205,2025-10-17 10h44.51.975870 -0400,
,,,0,0,0,,,,,,,,,,,,,,,,,,0,0,0,0,1257.8001381670001,,,,,,,,,,,,,,,,,,,,,,,,,,,,,,,,,,,,,,,,,,,,,,,,,,,,,,,,,,negc_negs,30,-15,15,-15,"[5, 2, 1, 0.5]",lin,1,1,8,0,1,3,start,5,-15,-15,-30,1257.7921612499995,1257.8001381670001,1258.2885762080004,1258.2885762080004,1258.3614373749988,1258.3614373749988,1258.3614373749988,1258.824685042,0,,,,,,,,,,,,,,,21049999,0,2025-10-17_10h44.28.208,tilt_staircase,2024.2.4,120.34641764341205,2025-10-17 10h44.51.975870 -0400,
,,,0,0,0,,,,,,,,,,,,,,,,,,0,0,0,0,1258.8339925830005,,,,,,,,,,,,,,,,,,,,,,,,,,,,,,,,,,,,,,,,,,,,,,,,,,,,,,,,,,posc_poss,30,15,15,-15,"[5, 2, 1, 0.5]",lin,1,1,8,3,1,4,start,5,15,15,30,1258.8258325829993,1258.8339925830005,1259.3220373330005,1259.3220373330005,1259.3954028329972,1259.3954028329972,1259.3954028329972,1259.8916996249973,1,,,,,,,,,,,,,,,21049999,0,2025-10-17_10h44.28.208,tilt_staircase,2024.2.4,120.34641764341205,2025-10-17 10h44.51.975870 -0400,
,,,0,0,0,,,,,,,,,,,,,,,,,,0,0,0,0,1259.901834332999,,,,,,,,,,,,,,,,,,,,,,,,,,,,,,,,,,,,,,,,,,,,,,,,,,,,,,,,,,negc_noss,30,-15,15,-15,"[5, 2, 1, 0.5]",lin,1,1,8,4,1,5,start,5,-15,-15,,1259.8934860419977,1259.901834332999,1260.3887142919993,1260.3887142919993,1260.4625503749994,1260.4625503749994,1260.4625503749994,1260.8082486669991,0,,,,,,,,,,,,,,,21049999,0,2025-10-17_10h44.28.208,tilt_staircase,2024.2.4,120.34641764341205,2025-10-17 10h44.51.975870 -0400,
,,,0,0,0,,,,,,,,,,,,,,,,,,0,0,0,0,1260.8176440829993,,,,,,,,,,,,,,,,,,,,,,,,,,,,,,,,,,,,,,,,,,,,,,,,,,,,,,,,,,posc_negs,30,15,15,-15,"[5, 2, 1, 0.5]",lin,1,1,8,1,2,6,down,5,10,10,-30,1260.8094920829972,1260.8176440829993,1261.305564582999,1261.305564582999,1261.379140582998,1261.379140582998,1261.379140582998,1261.7916494169986,1,,,,,,,,,,,,,,,21049999,0,2025-10-17_10h44.28.208,tilt_staircase,2024.2.4,120.34641764341205,2025-10-17 10h44.51.975870 -0400,
,,,0,0,0,,,,,,,,,,,,,,,,,,0,0,0,0,1261.8011961669981,,,,,,,,,,,,,,,,,,,,,,,,,,,,,,,,,,,,,,,,,,,,,,,,,,,,,,,,,,negc_negs,30,-15,15,-15,"[5, 2, 1, 0.5]",lin,1,1,8,0,2,7,up,5,-10,-10,-30,1261.7929260419987,1261.8011961669981,1262.2878653329972,1262.2878653329972,1262.3625017919985,1262.3625017919985,1262.3625017919985,1263.0423033749976,0,,,,,,,,,,,,,,,21049999,0,2025-10-17_10h44.28.208,tilt_staircase,2024.2.4,120.34641764341205,2025-10-17 10h44.51.975870 -0400,
,,,0,0,0,,,,,,,,,,,,,,,,,,0,0,0,0,1263.0519272919992,,,,,,,,,,,,,,,,,,,,,,,,,,,,,,,,,,,,,,,,,,,,,,,,,,,,,,,,,,posc_poss,30,15,15,-15,"[5, 2, 1, 0.5]",lin,1,1,8,3,2,8,down,5,10,10,30,1263.0437631249988,1263.0519272919992,1263.538920791998,1263.538920791998,1263.6110512499981,1263.6110512499981,1263.6110512499981,1264.2084307080004,1,,,,,,,,,,,,,,,21049999,0,2025-10-17_10h44.28.208,tilt_staircase,2024.2.4,120.34641764341205,2025-10-17 10h44.51.975870 -0400,
,,,0,0,0,,,,,,,,,,,,,,,,,,0,0,0,0,1264.2179270419983,,,,,,,,,,,,,,,,,,,,,,,,,,,,,,,,,,,,,,,,,,,,,,,,,,,,,,,,,,posc_noss,30,15,15,-15,"[5, 2, 1, 0.5]",lin,1,1,8,5,2,9,down,5,10,10,,1264.2098428749996,1264.2179270419983,1264.705476957999,1264.705476957999,1264.7792912080004,1264.7792912080004,1264.7792912080004,1265.258315791998,1,,,,,,,,,,,,,,,21049999,0,2025-10-17_10h44.28.208,tilt_staircase,2024.2.4,120.34641764341205,2025-10-17 10h44.51.975870 -0400,
,,,0,0,0,,,,,,,,,,,,,,,,,,0,0,0,0,1265.2675497499986,,,,,,,,,,,,,,,,,,,,,,,,,,,,,,,,,,,,,,,,,,,,,,,,,,,,,,,,,,negc_poss,30,-15,15,-15,"[5, 2, 1, 0.5]",lin,1,1,8,2,2,10,up,5,-10,-10,30,1265.2594727079995,1265.2675497499986,1265.7556180419997,1265.7556180419997,1265.8296845000004,1265.8296845000004,1265.8296845000004,1266.197745333,0,,,,,,,,,,,,,,,21049999,0,2025-10-17_10h44.28.208,tilt_staircase,2024.2.4,120.34641764341205,2025-10-17 10h44.51.975870 -0400,
,,,0,0,0,,,,,,,,,,,,,,,,,,0,0,0,0,1266.2224244169993,,,,,,,,,,,,,,,,,,,,,,,,,,,,,,,,,,,,,,,,,,,,,,,,,,,,,,,,,,negc_noss,30,-15,15,-15,"[5, 2, 1, 0.5]",lin,1,1,8,4,2,11,up,5,-10,-10,,1266.1990413329986,1266.2224244169993,1266.6978608329991,1266.6978608329991,1266.7730780419988,1266.7730780419988,1266.7730780419988,1267.1643046249992,0,,,,,,,,,,,,,,,21049999,0,2025-10-17_10h44.28.208,tilt_staircase,2024.2.4,120.34641764341205,2025-10-17 10h44.51.975870 -0400,
,,,0,0,0,,,,,,,,,,,,,,,,,,0,0,0,0,1267.1892192499981,,,,,,,,,,,,,,,,,,,,,,,,,,,,,,,,,,,,,,,,,,,,,,,,,,,,,,,,,,negc_noss,30,-15,15,-15,"[5, 2, 1, 0.5]",lin,1,1,8,4,3,12,up,5,-5,-5,,1267.1654151669973,1267.1892192499981,1267.6645817919998,1267.6645817919998,1267.7395704169976,1267.7395704169976,1267.7395704169976,1268.1299859169994,1,,,,,,,,,,,,,,,21049999,0,2025-10-17_10h44.28.208,tilt_staircase,2024.2.4,120.34641764341205,2025-10-17 10h44.51.975870 -0400,
,,,0,0,0,,,,,,,,,,,,,,,,,,0,0,0,0,1268.1388898749974,,,,,,,,,,,,,,,,,,,,,,,,,,,,,,,,,,,,,,,,,,,,,,,,,,,,,,,,,,negc_poss,30,-15,15,-15,"[5, 2, 1, 0.5]",lin,1,1,8,2,3,13,up,5,-5,-5,30,1268.1311072079989,1268.1388898749974,1268.6315017499983,1268.6315017499983,1268.7058543329986,1268.7058543329986,1268.7058543329986,1269.2079368749983,0,,,,,,,,,,,,,,,21049999,0,2025-10-17_10h44.28.208,tilt_staircase,2024.2.4,120.34641764341205,2025-10-17 10h44.51.975870 -0400,
,,,0,0,0,,,,,,,,,,,,,,,,,,0,0,0,0,1269.217123167,,,,,,,,,,,,,,,,,,,,,,,,,,,,,,,,,,,,,,,,,,,,,,,,,,,,,,,,,,posc_negs,30,15,15,-15,"[5, 2, 1, 0.5]",lin,1,1,8,1,3,14,down,5,5,5,-30,1269.2090760419997,1269.217123167,1269.7058436249972,1269.7058436249972,1269.779358249998,1269.779358249998,1269.779358249998,1270.2081866249973,1,,,,,,,,,,,,,,,21049999,0,2025-10-17_10h44.28.208,tilt_staircase,2024.2.4,120.34641764341205,2025-10-17 10h44.51.975870 -0400,
,,,0,0,0,,,,,,,,,,,,,,,,,,0,0,0,0,1270.217474416997,,,,,,,,,,,,,,,,,,,,,,,,,,,,,,,,,,,,,,,,,,,,,,,,,,,,,,,,,,posc_noss,30,15,15,-15,"[5, 2, 1, 0.5]",lin,1,1,8,5,3,15,down,5,5,5,,1270.209361666999,1270.217474416997,1270.7058482920002,1270.7058482920002,1270.7786710420005,1270.7786710420005,1270.7786710420005,1271.274619374999,1,,,,,,,,,,,,,,,21049999,0,2025-10-17_10h44.28.208,tilt_staircase,2024.2.4,120.34641764341205,2025-10-17 10h44.51.975870 -0400,
,,,0,0,0,,,,,,,,,,,,,,,,,,0,0,0,0,1271.2837687499996,,,,,,,,,,,,,,,,,,,,,,,,,,,,,,,,,,,,,,,,,,,,,,,,,,,,,,,,,,posc_poss,30,15,15,-15,"[5, 2, 1, 0.5]",lin,1,1,8,3,3,16,down,5,5,5,30,1271.2757567499975,1271.2837687499996,1271.7724480420002,1271.7724480420002,1271.8460052079972,1271.8460052079972,1271.8460052079972,1272.5019064169974,0,,,,,,,,,,,,,,,21049999,0,2025-10-17_10h44.28.208,tilt_staircase,2024.2.4,120.34641764341205,2025-10-17 10h44.51.975870 -0400,
,,,0,0,0,,,,,,,,,,,,,,,,,,0,0,0,0,1272.5085868749993,,,,,,,,,,,,,,,,,,,,,,,,,,,,,,,,,,,,,,,,,,,,,,,,,,,,,,,,,,negc_negs,30,-15,15,-15,"[5, 2, 1, 0.5]",lin,1,1,8,0,3,17,up,5,-5,-5,-30,1272.503050457999,1272.5085868749993,1272.9983790829974,1272.9983790829974,1273.0795851669973,1273.0728367919983,1273.0728367919983,1273.8641755419994,1,,,,,,,,,,,,,,,21049999,0,2025-10-17_10h44.28.208,tilt_staircase,2024.2.4,120.34641764341205,2025-10-17 10h44.51.975870 -0400,
,,,0,0,0,,,,,,,,,,,,,,,,,,0,0,0,0,1273.8735223330004,,,,,,,,,,,,,,,,,,,,,,,,,,,,,,,,,,,,,,,,,,,,,,,,,,,,,,,,,,posc_noss,30,15,15,-15,"[5, 2, 1, 0.5]",lin,1,1,8,5,4,18,down,5,0,0,,1273.8653198749998,1273.8735223330004,1274.365028791999,1274.365028791999,1274.4395960000002,1274.4395960000002,1274.4395960000002,1275.3646399999998,1,,,,,,,,,,,,,,,21049999,0,2025-10-17_10h44.28.208,tilt_staircase,2024.2.4,120.34641764341205,2025-10-17 10h44.51.975870 -0400,
,,,0,0,0,,,,,,,,,,,,,,,,,,0,0,0,0,1275.3892806250005,,,,,,,,,,,,,,,,,,,,,,,,,,,,,,,,,,,,,,,,,,,,,,,,,,,,,,,,,,negc_negs,30,-15,15,-15,"[5, 2, 1, 0.5]",lin,1,1,8,0,4,19,down,2,-7,-7,-30,1275.3657714170004,1275.3892806250005,1275.8648296669999,1275.8648296669999,1275.939490749999,1275.939490749999,1275.939490749999,1278.9094938749986,1,,,,,,,,,,,,,,,21049999,0,2025-10-17_10h44.28.208,tilt_staircase,2024.2.4,120.34641764341205,2025-10-17 10h44.51.975870 -0400,
,,,0,0,0,,,,,,,,,,,,,,,,,,0,0,0,0,1278.9189669999978,,,,,,,,,,,,,,,,,,,,,,,,,,,,,,,,,,,,,,,,,,,,,,,,,,,,,,,,,,negc_noss,30,-15,15,-15,"[5, 2, 1, 0.5]",lin,1,1,8,4,4,20,down,2,-7,-7,,1278.9106936669996,1278.9189669999978,1279.406042374998,1279.406042374998,1279.4796722499996,1279.4796722499996,1279.4796722499996,1279.8475055829986,0,,,,,,,,,,,,,,,21049999,0,2025-10-17_10h44.28.208,tilt_staircase,2024.2.4,120.34641764341205,2025-10-17 10h44.51.975870 -0400,
,,,0,0,0,,,,,,,,,,,,,,,,,,0,0,0,0,1279.856909291997,,,,,,,,,,,,,,,,,,,,,,,,,,,,,,,,,,,,,,,,,,,,,,,,,,,,,,,,,,negc_poss,30,-15,15,-15,"[5, 2, 1, 0.5]",lin,1,1,8,2,4,21,up,5,0,0,30,1279.8486449999982,1279.856909291997,1280.3481745419995,1280.3481745419995,1280.4233174580004,1280.4233174580004,1280.4233174580004,1281.2418409169986,0,,,,,,,,,,,,,,,21049999,0,2025-10-17_10h44.28.208,tilt_staircase,2024.2.4,120.34641764341205,2025-10-17 10h44.51.975870 -0400,
,,,0,0,0,,,,,,,,,,,,,,,,,,0,0,0,0,1281.2509168750003,,,,,,,,,,,,,,,,,,,,,,,,,,,,,,,,,,,,,,,,,,,,,,,,,,,,,,,,,,posc_poss,30,15,15,-15,"[5, 2, 1, 0.5]",lin,1,1,8,3,4,22,up,2,7,7,30,1281.2429697499974,1281.2509168750003,1281.739547457997,1281.739547457997,1281.8128633749984,1281.8128633749984,1281.8128633749984,1282.381196208,1,,,,,,,,,,,,,,,21049999,0,2025-10-17_10h44.28.208,tilt_staircase,2024.2.4,120.34641764341205,2025-10-17 10h44.51.975870 -0400,
,,,0,0,0,,,,,,,,,,,,,,,,,,0,0,0,0,1282.3904077499974,,,,,,,,,,,,,,,,,,,,,,,,,,,,,,,,,,,,,,,,,,,,,,,,,,,,,,,,,,posc_negs,30,15,15,-15,"[5, 2, 1, 0.5]",lin,1,1,8,1,4,23,down,5,0,0,-30,1282.3823585419996,1282.3904077499974,1282.8828579580004,1282.8828579580004,1282.9567134169993,1282.9567134169993,1282.9567134169993,1283.7923241669996,1,,,,,,,,,,,,,,,21049999,0,2025-10-17_10h44.28.208,tilt_staircase,2024.2.4,120.34641764341205,2025-10-17 10h44.51.975870 -0400,
,,,0,0,0,,,,,,,,,,,,,,,,,,0,0,0,0,1283.801462583,,,,,,,,,,,,,,,,,,,,,,,,,,,,,,,,,,,,,,,,,,,,,,,,,,,,,,,,,,negc_negs,30,-15,15,-15,"[5, 2, 1, 0.5]",lin,1,1,8,0,5,24,down,2,-9,-9,-30,1283.793495124999,1283.801462583,1284.288668833,1284.288668833,1284.3629967499983,1284.3629967499983,1284.3629967499983,1284.975370791999,0,,,,,,,,,,,,,,,21049999,0,2025-10-17_10h44.28.208,tilt_staircase,2024.2.4,120.34641764341205,2025-10-17 10h44.51.975870 -0400,
,,,0,0,0,,,,,,,,,,,,,,,,,,0,0,0,0,1284.984378416997,,,,,,,,,,,,,,,,,,,,,,,,,,,,,,,,,,,,,,,,,,,,,,,,,,,,,,,,,,posc_poss,30,15,15,-15,"[5, 2, 1, 0.5]",lin,1,1,8,3,5,25,down,1,6,6,30,1284.9765153749977,1284.984378416997,1285.4729360419988,1285.4729360419988,1285.5467598750001,1285.5467598750001,1285.5467598750001,1286.1421890829988,1,,,,,,,,,,,,,,,21049999,0,2025-10-17_10h44.28.208,tilt_staircase,2024.2.4,120.34641764341205,2025-10-17 10h44.51.975870 -0400,
,,,0,0,0,,,,,,,,,,,,,,,,,,0,0,0,0,1286.151383458,,,,,,,,,,,,,,,,,,,,,,,,,,,,,,,,,,,,,,,,,,,,,,,,,,,,,,,,,,negc_noss,30,-15,15,-15,"[5, 2, 1, 0.5]",lin,1,1,8,4,5,26,up,1,-6,-6,,1286.1433589999979,1286.151383458,1286.6396654579985,1286.6396654579985,1286.7128985829986,1286.7128985829986,1286.7128985829986,1287.1259848749978,0,,,,,,,,,,,,,,,21049999,0,2025-10-17_10h44.28.208,tilt_staircase,2024.2.4,120.34641764341205,2025-10-17 10h44.51.975870 -0400,
,,,0,0,0,,,,,,,,,,,,,,,,,,0,0,0,0,1287.1355247499996,,,,,,,,,,,,,,,,,,,,,,,,,,,,,,,,,,,,,,,,,,,,,,,,,,,,,,,,,,posc_negs,30,15,15,-15,"[5, 2, 1, 0.5]",lin,1,1,8,1,5,27,down,5,-5,-5,-30,1287.1273069579984,1287.1355247499996,1287.6230677499989,1287.6230677499989,1287.6968522499992,1287.6968522499992,1287.6968522499992,1288.7323194169985,1,,,,,,,,,,,,,,,21049999,0,2025-10-17_10h44.28.208,tilt_staircase,2024.2.4,120.34641764341205,2025-10-17 10h44.51.975870 -0400,
,,,0,0,0,,,,,,,,,,,,,,,,,,0,0,0,0,1288.7419392079973,,,,,,,,,,,,,,,,,,,,,,,,,,,,,,,,,,,,,,,,,,,,,,,,,,,,,,,,,,posc_noss,30,15,15,-15,"[5, 2, 1, 0.5]",lin,1,1,8,5,5,28,down,5,-5,-5,,1288.733516166998,1288.7419392079973,1289.2316720419985,1289.2316720419985,1289.3067779169978,1289.3067779169978,1289.3067779169978,1289.7425847079976,0,,,,,,,,,,,,,,,21049999,0,2025-10-17_10h44.28.208,tilt_staircase,2024.2.4,120.34641764341205,2025-10-17 10h44.51.975870 -0400,
,,,0,0,0,,,,,,,,,,,,,,,,,,0,0,0,0,1289.7523864579998,,,,,,,,,,,,,,,,,,,,,,,,,,,,,,,,,,,,,,,,,,,,,,,,,,,,,,,,,,negc_poss,30,-15,15,-15,"[5, 2, 1, 0.5]",lin,1,1,8,2,5,29,up,5,5,5,30,1289.7440037499982,1289.7523864579998,1290.2398260419977,1290.2398260419977,1290.3128613749977,1290.3128613749977,1290.3128613749977,1290.8923016669978,1,,,,,,,,,,,,,,,21049999,0,2025-10-17_10h44.28.208,tilt_staircase,2024.2.4,120.34641764341205,2025-10-17 10h44.51.975870 -0400,
,,,0,0,0,,,,,,,,,,,,,,,,,,0,0,0,0,1290.9016431669988,,,,,,,,,,,,,,,,,,,,,,,,,,,,,,,,,,,,,,,,,,,,,,,,,,,,,,,,,,negc_poss,30,-15,15,-15,"[5, 2, 1, 0.5]",lin,1,1,8,2,6,30,down,2,3,3,30,1290.8934772920002,1290.9016431669988,1291.3898315419974,1291.3898315419974,1291.4634156249995,1291.4634156249995,1291.4634156249995,1293.7767246250005,0,,,,,,,,,,,,,,,21049999,0,2025-10-17_10h44.28.208,tilt_staircase,2024.2.4,120.34641764341205,2025-10-17 10h44.51.975870 -0400,
,,,0,0,0,,,,,,,,,,,,,,,,,,0,0,0,0,1293.7862863749979,,,,,,,,,,,,,,,,,,,,,,,,,,,,,,,,,,,,,,,,,,,,,,,,,,,,,,,,,,negc_noss,30,-15,15,-15,"[5, 2, 1, 0.5]",lin,1,1,8,4,6,31,up,1,-5,-5,,1293.7779780829987,1293.7862863749979,1294.273295125,1294.273295125,1294.3466029999981,1294.3466029999981,1294.3466029999981,1294.7261887079985,0,,,,,,,,,,,,,,,21049999,0,2025-10-17_10h44.28.208,tilt_staircase,2024.2.4,120.34641764341205,2025-10-17 10h44.51.975870 -0400,
,,,0,0,0,,,,,,,,,,,,,,,,,,0,0,0,0,1294.735489625,,,,,,,,,,,,,,,,,,,,,,,,,,,,,,,,,,,,,,,,,,,,,,,,,,,,,,,,,,negc_negs,30,-15,15,-15,"[5, 2, 1, 0.5]",lin,1,1,8,0,6,32,up,1,-8,-8,-30,1294.7273442080004,1294.735489625,1295.2226041249996,1295.2226041249996,1295.2970292499995,1295.2970292499995,1295.2970292499995,1296.2589979999975,0,,,,,,,,,,,,,,,21049999,0,2025-10-17_10h44.28.208,tilt_staircase,2024.2.4,120.34641764341205,2025-10-17 10h44.51.975870 -0400,
,,,0,0,0,,,,,,,,,,,,,,,,,,0,0,0,0,1296.2684622079978,,,,,,,,,,,,,,,,,,,,,,,,,,,,,,,,,,,,,,,,,,,,,,,,,,,,,,,,,,posc_noss,30,15,15,-15,"[5, 2, 1, 0.5]",lin,1,1,8,5,6,33,up,2,-3,-3,,1296.2601412080003,1296.2684622079978,1296.7566790419987,1296.7566790419987,1296.830182624999,1296.830182624999,1296.830182624999,1297.2984087919976,0,,,,,,,,,,,,,,,21049999,0,2025-10-17_10h44.28.208,tilt_staircase,2024.2.4,120.34641764341205,2025-10-17 10h44.51.975870 -0400,
,,,0,0,0,,,,,,,,,,,,,,,,,,0,0,0,0,1297.3237025829985,,,,,,,,,,,,,,,,,,,,,,,,,,,,,,,,,,,,,,,,,,,,,,,,,,,,,,,,,,posc_poss,30,15,15,-15,"[5, 2, 1, 0.5]",lin,1,1,8,3,6,34,down,1,5,5,30,1297.2995285830002,1297.3237025829985,1297.7987150829977,1297.7987150829977,1297.8739139999998,1297.8739139999998,1297.8739139999998,1298.9822010829994,0,,,,,,,,,,,,,,,21049999,0,2025-10-17_10h44.28.208,tilt_staircase,2024.2.4,120.34641764341205,2025-10-17 10h44.51.975870 -0400,
,,,0,0,0,,,,,,,,,,,,,,,,,,0,0,0,0,1299.0068238329986,,,,,,,,,,,,,,,,,,,,,,,,,,,,,,,,,,,,,,,,,,,,,,,,,,,,,,,,,,posc_negs,30,15,15,-15,"[5, 2, 1, 0.5]",lin,1,1,8,1,6,35,down,5,-10,-10,-30,1298.983357541998,1299.0068238329986,1299.4826697919998,1299.4826697919998,1299.5570238750006,1299.5570238750006,1299.5570238750006,1300.5595468329993,0,,,,,,,,,,,,,,,21049999,0,2025-10-17_10h44.28.208,tilt_staircase,2024.2.4,120.34641764341205,2025-10-17 10h44.51.975870 -0400,
,,,0,0,0,,,,,,,,,,,,,,,,,,0,0,0,0,1300.5688480829995,,,,,,,,,,,,,,,,,,,,,,,,,,,,,,,,,,,,,,,,,,,,,,,,,,,,,,,,,,posc_noss,30,15,15,-15,"[5, 2, 1, 0.5]",lin,1,1,8,5,7,36,up,2,-1,-1,,1300.5607916669978,1300.5688480829995,1301.0569479999976,1301.0569479999976,1301.1310206669987,1301.1310206669987,1301.1310206669987,1302.010120125,0,,,,,,,,,,,,,,,21049999,0,2025-10-17_10h44.28.208,tilt_staircase,2024.2.4,120.34641764341205,2025-10-17 10h44.51.975870 -0400,
,,,0,0,0,,,,,,,,,,,,,,,,,,0,0,0,0,1302.019637082998,,,,,,,,,,,,,,,,,,,,,,,,,,,,,,,,,,,,,,,,,,,,,,,,,,,,,,,,,,posc_negs,30,15,15,-15,"[5, 2, 1, 0.5]",lin,1,1,8,1,7,37,up,2,-8,-8,-30,1302.0113741249988,1302.019637082998,1302.5068687919993,1302.5068687919993,1302.5805268749973,1302.5805268749973,1302.5805268749973,1303.4977378749973,0,,,,,,,,,,,,,,,21049999,0,2025-10-17_10h44.28.208,tilt_staircase,2024.2.4,120.34641764341205,2025-10-17 10h44.51.975870 -0400,
,,,0,0,0,,,,,,,,,,,,,,,,,,0,0,0,0,1303.506991457998,,,,,,,,,,,,,,,,,,,,,,,,,,,,,,,,,,,,,,,,,,,,,,,,,,,,,,,,,,posc_poss,30,15,15,-15,"[5, 2, 1, 0.5]",lin,1,1,8,3,7,38,up,0.5,5.5,5.5,30,1303.49887725,1303.506991457998,1303.9992853749973,1303.9992853749973,1304.0741666249996,1304.0741666249996,1304.0741666249996,1305.1668987919984,0,,,,,,,,,,,,,,,21049999,0,2025-10-17_10h44.28.208,tilt_staircase,2024.2.4,120.34641764341205,2025-10-17 10h44.51.975870 -0400,
,,,0,0,0,,,,,,,,,,,,,,,,,,0,0,0,0,1305.176343916999,,,,,,,,,,,,,,,,,,,,,,,,,,,,,,,,,,,,,,,,,,,,,,,,,,,,,,,,,,negc_negs,30,-15,15,-15,"[5, 2, 1, 0.5]",lin,1,1,8,0,7,39,up,1,-7,-7,-30,1305.168059624997,1305.176343916999,1305.6659470419982,1305.6659470419982,1305.7409520830006,1305.7409520830006,1305.7409520830006,1306.726047707998,0,,,,,,,,,,,,,,,21049999,0,2025-10-17_10h44.28.208,tilt_staircase,2024.2.4,120.34641764341205,2025-10-17 10h44.51.975870 -0400,
,,,0,0,0,,,,,,,,,,,,,,,,,,0,0,0,0,1306.7354356670003,,,,,,,,,,,,,,,,,,,,,,,,,,,,,,,,,,,,,,,,,,,,,,,,,,,,,,,,,,negc_noss,30,-15,15,-15,"[5, 2, 1, 0.5]",lin,1,1,8,4,7,40,up,1,-4,-4,,1306.7272155829996,1306.7354356670003,1307.2236632919994,1307.2236632919994,1307.2972228750004,1307.2972228750004,1307.2972228750004,1307.9430414169983,0,,,,,,,,,,,,,,,21049999,0,2025-10-17_10h44.28.208,tilt_staircase,2024.2.4,120.34641764341205,2025-10-17 10h44.51.975870 -0400,
,,,0,0,0,,,,,,,,,,,,,,,,,,0,0,0,0,1307.9522938329974,,,,,,,,,,,,,,,,,,,,,,,,,,,,,,,,,,,,,,,,,,,,,,,,,,,,,,,,,,negc_poss,30,-15,15,-15,"[5, 2, 1, 0.5]",lin,1,1,8,2,7,41,up,1,4,4,30,1307.9443049999973,1307.9522938329974,1308.4395445829978,1308.4395445829978,1308.5140976669973,1308.5140976669973,1308.5140976669973,1309.5768708329997,0,,,,,,,,,,,,,,,21049999,0,2025-10-17_10h44.28.208,tilt_staircase,2024.2.4,120.34641764341205,2025-10-17 10h44.51.975870 -0400,
,,,0,0,0,,,,,,,,,,,,,,,,,,0,0,0,0,1309.5864837499976,,,,,,,,,,,,,,,,,,,,,,,,,,,,,,,,,,,,,,,,,,,,,,,,,,,,,,,,,,posc_noss,30,15,15,-15,"[5, 2, 1, 0.5]",lin,1,1,8,5,8,42,up,2,1,1,,1309.5781075419982,1309.5864837499976,1310.0738803329987,1310.0738803329987,1310.1475269170005,1310.1475269170005,1310.1475269170005,1311.0765912079987,0,,,,,,,,,,,,,,,21049999,0,2025-10-17_10h44.28.208,tilt_staircase,2024.2.4,120.34641764341205,2025-10-17 10h44.51.975870 -0400,
,,,0,0,0,,,,,,,,,,,,,,,,,,0,0,0,0,1311.08584625,,,,,,,,,,,,,,,,,,,,,,,,,,,,,,,,,,,,,,,,,,,,,,,,,,,,,,,,,,negc_poss,30,-15,15,-15,"[5, 2, 1, 0.5]",lin,1,1,8,2,8,43,up,1,5,5,30,1311.0778664999998,1311.08584625,1311.5739697499994,1311.5739697499994,1311.647710707999,1311.647710707999,1311.647710707999,1312.410173458,1,,,,,,,,,,,,,,,21049999,0,2025-10-17_10h44.28.208,tilt_staircase,2024.2.4,120.34641764341205,2025-10-17 10h44.51.975870 -0400,
,,,0,0,0,,,,,,,,,,,,,,,,,,0,0,0,0,1312.4195750830004,,,,,,,,,,,,,,,,,,,,,,,,,,,,,,,,,,,,,,,,,,,,,,,,,,,,,,,,,,negc_negs,30,-15,15,-15,"[5, 2, 1, 0.5]",lin,1,1,8,0,8,44,up,1,-6,-6,-30,1312.4113587499996,1312.4195750830004,1312.9072487079975,1312.9072487079975,1312.9810641250006,1312.9810641250006,1312.9810641250006,1313.9025718329976,0,,,,,,,,,,,,,,,21049999,0,2025-10-17_10h44.28.208,tilt_staircase,2024.2.4,120.34641764341205,2025-10-17 10h44.51.975870 -0400,
,,,0,0,0,,,,,,,,,,,,,,,,,,0,0,0,0,1313.9091042500004,,,,,,,,,,,,,,,,,,,,,,,,,,,,,,,,,,,,,,,,,,,,,,,,,,,,,,,,,,negc_noss,30,-15,15,-15,"[5, 2, 1, 0.5]",lin,1,1,8,4,8,45,up,1,-3,-3,,1313.9037029579995,1313.9091042500004,1314.3994720829978,1314.3994720829978,1314.4817934169987,1314.474613167,1314.474613167,1315.1428310829979,0,,,,,,,,,,,,,,,21049999,0,2025-10-17_10h44.28.208,tilt_staircase,2024.2.4,120.34641764341205,2025-10-17 10h44.51.975870 -0400,
,,,0,0,0,,,,,,,,,,,,,,,,,,0,0,0,0,1315.1521113329982,,,,,,,,,,,,,,,,,,,,,,,,,,,,,,,,,,,,,,,,,,,,,,,,,,,,,,,,,,posc_negs,30,15,15,-15,"[5, 2, 1, 0.5]",lin,1,1,8,1,8,46,up,2,-6,-6,-30,1315.1439670420004,1315.1521113329982,1315.6407983749996,1315.6407983749996,1315.7139508750006,1315.7139508750006,1315.7139508750006,1316.5602755420005,0,,,,,,,,,,,,,,,21049999,0,2025-10-17_10h44.28.208,tilt_staircase,2024.2.4,120.34641764341205,2025-10-17 10h44.51.975870 -0400,
,,,0,0,0,,,,,,,,,,,,,,,,,,0,0,0,0,1316.5700079999988,,,,,,,,,,,,,,,,,,,,,,,,,,,,,,,,,,,,,,,,,,,,,,,,,,,,,,,,,,posc_poss,30,15,15,-15,"[5, 2, 1, 0.5]",lin,1,1,8,3,8,47,up,0.5,6.0,6.0,30,1316.5616800829994,1316.5700079999988,1317.057363374999,1317.057363374999,1317.1318280829983,1317.1318280829983,1317.1318280829983,1317.998693499998,0,,,,,,,,,,,,,,,21049999,0,2025-10-17_10h44.28.208,tilt_staircase,2024.2.4,120.34641764341205,2025-10-17 10h44.51.975870 -0400,
,,,0,0,0,,,,,,,,,,,,,,,,,,0,0,0,0,1318.0074297499996,,,,,,,,,,,,,,,,,,,,,,,,,,,,,,,,,,,,,,,,,,,,,,,,,,,,,,,,,,negc_negs,30,-15,15,-15,"[5, 2, 1, 0.5]",lin,1,1,8,0,9,48,up,1,-5,-5,-30,1317.9998380420002,1318.0074297499996,1318.4999596249982,1318.4999596249982,1318.574690333,1318.574690333,1318.574690333,1319.2931575000002,0,,,,,,,,,,,,,,,21049999,0,2025-10-17_10h44.28.208,tilt_staircase,2024.2.4,120.34641764341205,2025-10-17 10h44.51.975870 -0400,
,,,0,0,0,,,,,,,,,,,,,,,,,,0,0,0,0,1319.3023850829995,,,,,,,,,,,,,,,,,,,,,,,,,,,,,,,,,,,,,,,,,,,,,,,,,,,,,,,,,,posc_negs,30,15,15,-15,"[5, 2, 1, 0.5]",lin,1,1,8,1,9,49,up,2,-4,-4,-30,1319.2943074169998,1319.3023850829995,1319.7908187920002,1319.7908187920002,1319.864222166998,1319.864222166998,1319.864222166998,1322.0268578329997,0,,,,,,,,,,,,,,,21049999,0,2025-10-17_10h44.28.208,tilt_staircase,2024.2.4,120.34641764341205,2025-10-17 10h44.51.975870 -0400,
,,,0,0,0,,,,,,,,,,,,,,,,,,0,0,0,0,1322.0366067920004,,,,,,,,,,,,,,,,,,,,,,,,,,,,,,,,,,,,,,,,,,,,,,,,,,,,,,,,,,posc_noss,30,15,15,-15,"[5, 2, 1, 0.5]",lin,1,1,8,5,9,50,up,2,3,3,,1322.0284017079975,1322.0366067920004,1322.5243617079977,1322.5243617079977,1322.5975788329997,1322.5975788329997,1322.5975788329997,1323.543960791998,1,,,,,,,,,,,,,,,21049999,0,2025-10-17_10h44.28.208,tilt_staircase,2024.2.4,120.34641764341205,2025-10-17 10h44.51.975870 -0400,
,,,0,0,0,,,,,,,,,,,,,,,,,,0,0,0,0,1323.553330499999,,,,,,,,,,,,,,,,,,,,,,,,,,,,,,,,,,,,,,,,,,,,,,,,,,,,,,,,,,negc_poss,30,-15,15,-15,"[5, 2, 1, 0.5]",lin,1,1,8,2,9,51,down,0.5,4.5,4.5,30,1323.5451678749996,1323.553330499999,1324.0409593749973,1324.0409593749973,1324.1147560829995,1324.1147560829995,1324.1147560829995,1325.0771393750001,1,,,,,,,,,,,,,,,21049999,0,2025-10-17_10h44.28.208,tilt_staircase,2024.2.4,120.34641764341205,2025-10-17 10h44.51.975870 -0400,
,,,0,0,0,,,,,,,,,,,,,,,,,,0,0,0,0,1325.086373291997,,,,,,,,,,,,,,,,,,,,,,,,,,,,,,,,,,,,,,,,,,,,,,,,,,,,,,,,,,posc_poss,30,15,15,-15,"[5, 2, 1, 0.5]",lin,1,1,8,3,9,52,up,0.5,6.5,6.5,30,1325.078277875,1325.086373291997,1325.574642624997,1325.574642624997,1325.6482711249992,1325.6482711249992,1325.6482711249992,1326.5177986249982,0,,,,,,,,,,,,,,,21049999,0,2025-10-17_10h44.28.208,tilt_staircase,2024.2.4,120.34641764341205,2025-10-17 10h44.51.975870 -0400,
,,,0,0,0,,,,,,,,,,,,,,,,,,0,0,0,0,1326.5275948329981,,,,,,,,,,,,,,,,,,,,,,,,,,,,,,,,,,,,,,,,,,,,,,,,,,,,,,,,,,negc_noss,30,-15,15,-15,"[5, 2, 1, 0.5]",lin,1,1,8,4,9,53,up,1,-2,-2,,1326.5191520829976,1326.5275948329981,1327.017614166998,1327.017614166998,1327.0916516670004,1327.0916516670004,1327.0916516670004,1327.7605265419988,0,,,,,,,,,,,,,,,21049999,0,2025-10-17_10h44.28.208,tilt_staircase,2024.2.4,120.34641764341205,2025-10-17 10h44.51.975870 -0400,
,,,0,0,0,,,,,,,,,,,,,,,,,,0,0,0,0,1327.7701774999987,,,,,,,,,,,,,,,,,,,,,,,,,,,,,,,,,,,,,,,,,,,,,,,,,,,,,,,,,,negc_poss,30,-15,15,-15,"[5, 2, 1, 0.5]",lin,1,1,8,2,10,54,down,0.5,4.0,4.0,30,1327.7617374170004,1327.7701774999987,1328.2577989579986,1328.2577989579986,1328.330094957997,1328.330094957997,1328.330094957997,1330.316858416998,0,,,,,,,,,,,,,,,21049999,0,2025-10-17_10h44.28.208,tilt_staircase,2024.2.4,120.34641764341205,2025-10-17 10h44.51.975870 -0400,
,,,0,0,0,,,,,,,,,,,,,,,,,,0,0,0,0,1330.3415430829991,,,,,,,,,,,,,,,,,,,,,,,,,,,,,,,,,,,,,,,,,,,,,,,,,,,,,,,,,,posc_noss,30,15,15,-15,"[5, 2, 1, 0.5]",lin,1,1,8,5,10,55,down,1,2,2,,1330.3179791250004,1330.3415430829991,1330.8173762080005,1330.8173762080005,1330.8917686249988,1330.8917686249988,1330.8917686249988,1331.3326049999996,1,,,,,,,,,,,,,,,21049999,0,2025-10-17_10h44.28.208,tilt_staircase,2024.2.4,120.34641764341205,2025-10-17 10h44.51.975870 -0400,
,,,0,0,0,,,,,,,,,,,,,,,,,,0,0,0,0,1331.3417046670002,,,,,,,,,,,,,,,,,,,,,,,,,,,,,,,,,,,,,,,,,,,,,,,,,,,,,,,,,,posc_poss,30,15,15,-15,"[5, 2, 1, 0.5]",lin,1,1,8,3,10,56,up,0.5,7.0,7.0,30,1331.3337279169973,1331.3417046670002,1331.8342260419995,1331.8342260419995,1331.9085487079974,1331.9085487079974,1331.9085487079974,1332.9332154999975,1,,,,,,,,,,,,,,,21049999,0,2025-10-17_10h44.28.208,tilt_staircase,2024.2.4,120.34641764341205,2025-10-17 10h44.51.975870 -0400,
,,,0,0,0,,,,,,,,,,,,,,,,,,0,0,0,0,1332.9582505420003,,,,,,,,,,,,,,,,,,,,,,,,,,,,,,,,,,,,,,,,,,,,,,,,,,,,,,,,,,negc_noss,30,-15,15,-15,"[5, 2, 1, 0.5]",lin,1,1,8,4,10,57,up,1,-1,-1,,1332.9343393749987,1332.9582505420003,1333.4341217500005,1333.4341217500005,1333.5085981249977,1333.5085981249977,1333.5085981249977,1337.533094082999,1,,,,,,,,,,,,,,,21049999,0,2025-10-17_10h44.28.208,tilt_staircase,2024.2.4,120.34641764341205,2025-10-17 10h44.51.975870 -0400,
,,,0,0,0,,,,,,,,,,,,,,,,,,0,0,0,0,1337.542455374998,,,,,,,,,,,,,,,,,,,,,,,,,,,,,,,,,,,,,,,,,,,,,,,,,,,,,,,,,,posc_negs,30,15,15,-15,"[5, 2, 1, 0.5]",lin,1,1,8,1,10,58,up,2,-2,-2,-30,1337.5342180829975,1337.542455374998,1338.0337624579988,1338.0337624579988,1338.1087818749984,1338.1087818749984,1338.1087818749984,1339.9779942079986,1,,,,,,,,,,,,,,,21049999,0,2025-10-17_10h44.28.208,tilt_staircase,2024.2.4,120.34641764341205,2025-10-17 10h44.51.975870 -0400,
,,,0,0,0,,,,,,,,,,,,,,,,,,0,0,0,0,1339.9874430829987,,,,,,,,,,,,,,,,,,,,,,,,,,,,,,,,,,,,,,,,,,,,,,,,,,,,,,,,,,negc_negs,30,-15,15,-15,"[5, 2, 1, 0.5]",lin,1,1,8,0,10,59,up,1,-4,-4,-30,1339.9792707919987,1339.9874430829987,1340.475084624999,1340.475084624999,1340.5485219999973,1340.5485219999973,1340.5485219999973,1344.1946727079994,0,,,,,,,,,,,,,,,21049999,0,2025-10-17_10h44.28.208,tilt_staircase,2024.2.4,120.34641764341205,2025-10-17 10h44.51.975870 -0400,
,,,0,0,0,,,,,,,,,,,,,,,,,,0,0,0,0,1344.2043870419984,,,,,,,,,,,,,,,,,,,,,,,,,,,,,,,,,,,,,,,,,,,,,,,,,,,,,,,,,,negc_poss,30,-15,15,-15,"[5, 2, 1, 0.5]",lin,1,1,8,2,11,60,up,0.5,4.5,4.5,30,1344.195974582999,1344.2043870419984,1344.6919617499989,1344.6919617499989,1344.7655082079982,1344.7655082079982,1344.7655082079982,1345.9598736249973,1,,,,,,,,,,,,,,,21049999,0,2025-10-17_10h44.28.208,tilt_staircase,2024.2.4,120.34641764341205,2025-10-17 10h44.51.975870 -0400,
,,,0,0,0,,,,,,,,,,,,,,,,,,0,0,0,0,1345.975816291997,,,,,,,,,,,,,,,,,,,,,,,,,,,,,,,,,,,,,,,,,,,,,,,,,,,,,,,,,,posc_poss,30,15,15,-15,"[5, 2, 1, 0.5]",lin,1,1,8,3,11,61,down,0.5,6.5,6.5,30,1345.9613293330003,1345.975816291997,1346.4586077079985,1346.4586077079985,1346.5323341669973,1346.5323341669973,1346.5323341669973,1347.232840499997,1,,,,,,,,,,,,,,,21049999,0,2025-10-17_10h44.28.208,tilt_staircase,2024.2.4,120.34641764341205,2025-10-17 10h44.51.975870 -0400,
,,,0,0,0,,,,,,,,,,,,,,,,,,0,0,0,0,1347.2424963329977,,,,,,,,,,,,,,,,,,,,,,,,,,,,,,,,,,,,,,,,,,,,,,,,,,,,,,,,,,negc_negs,30,-15,15,-15,"[5, 2, 1, 0.5]",lin,1,1,8,0,11,62,up,1,-3,-3,-30,1347.2339592079989,1347.2424963329977,1347.7351123329972,1347.7351123329972,1347.8091359999999,1347.8091359999999,1347.8091359999999,1348.5346403330004,1,,,,,,,,,,,,,,,21049999,0,2025-10-17_10h44.28.208,tilt_staircase,2024.2.4,120.34641764341205,2025-10-17 10h44.51.975870 -0400,
,,,0,0,0,,,,,,,,,,,,,,,,,,0,0,0,0,1348.5438954169986,,,,,,,,,,,,,,,,,,,,,,,,,,,,,,,,,,,,,,,,,,,,,,,,,,,,,,,,,,posc_noss,30,15,15,-15,"[5, 2, 1, 0.5]",lin,1,1,8,5,11,63,down,1,1,1,,1348.535813749997,1348.5438954169986,1349.034967083,1349.034967083,1349.108924541997,1349.108924541997,1349.108924541997,1349.7281200830002,1,,,,,,,,,,,,,,,21049999,0,2025-10-17_10h44.28.208,tilt_staircase,2024.2.4,120.34641764341205,2025-10-17 10h44.51.975870 -0400,
,,,0,0,0,,,,,,,,,,,,,,,,,,0,0,0,0,1349.7376417499981,,,,,,,,,,,,,,,,,,,,,,,,,,,,,,,,,,,,,,,,,,,,,,,,,,,,,,,,,,posc_negs,30,15,15,-15,"[5, 2, 1, 0.5]",lin,1,1,8,1,11,64,down,1,-3,-3,-30,1349.7293779169995,1349.7376417499981,1350.2252254999985,1350.2252254999985,1350.2987218749986,1350.2987218749986,1350.2987218749986,1351.0948430419994,1,,,,,,,,,,,,,,,21049999,0,2025-10-17_10h44.28.208,tilt_staircase,2024.2.4,120.34641764341205,2025-10-17 10h44.51.975870 -0400,
,,,0,0,0,,,,,,,,,,,,,,,,,,0,0,0,0,1351.1042307919997,,,,,,,,,,,,,,,,,,,,,,,,,,,,,,,,,,,,,,,,,,,,,,,,,,,,,,,,,,negc_noss,30,-15,15,-15,"[5, 2, 1, 0.5]",lin,1,1,8,4,11,65,down,0.5,-1.5,-1.5,,1351.0964259579996,1351.1042307919997,1351.5919880000001,1351.5919880000001,1351.665425416999,1351.665425416999,1351.665425416999,1352.2009086670005,0,,,,,,,,,,,,,,,21049999,0,2025-10-17_10h44.28.208,tilt_staircase,2024.2.4,120.34641764341205,2025-10-17 10h44.51.975870 -0400,
,,,0,0,0,,,,,,,,,,,,,,,,,,0,0,0,0,1352.2256154999995,,,,,,,,,,,,,,,,,,,,,,,,,,,,,,,,,,,,,,,,,,,,,,,,,,,,,,,,,,negc_negs,30,-15,15,-15,"[5, 2, 1, 0.5]",lin,1,1,8,0,12,66,down,0.5,-3.5,-3.5,-30,1352.2020597079973,1352.2256154999995,1352.702029791999,1352.702029791999,1352.7757534999982,1352.7757534999982,1352.7757534999982,1353.827730582998,0,,,,,,,,,,,,,,,21049999,0,2025-10-17_10h44.28.208,tilt_staircase,2024.2.4,120.34641764341205,2025-10-17 10h44.51.975870 -0400,
,,,0,0,0,,,,,,,,,,,,,,,,,,0,0,0,0,1353.837195541997,,,,,,,,,,,,,,,,,,,,,,,,,,,,,,,,,,,,,,,,,,,,,,,,,,,,,,,,,,negc_poss,30,-15,15,-15,"[5, 2, 1, 0.5]",lin,1,1,8,2,12,67,down,0.5,4.0,4.0,30,1353.8288998749995,1353.837195541997,1354.3254803329983,1354.3254803329983,1354.3989246249985,1354.3989246249985,1354.3989246249985,1356.1679839169992,0,,,,,,,,,,,,,,,21049999,0,2025-10-17_10h44.28.208,tilt_staircase,2024.2.4,120.34641764341205,2025-10-17 10h44.51.975870 -0400,
,,,0,0,0,,,,,,,,,,,,,,,,,,0,0,0,0,1356.1774007919994,,,,,,,,,,,,,,,,,,,,,,,,,,,,,,,,,,,,,,,,,,,,,,,,,,,,,,,,,,negc_noss,30,-15,15,-15,"[5, 2, 1, 0.5]",lin,1,1,8,4,12,68,up,0.5,-1.0,-1.0,,1356.1693101249984,1356.1774007919994,1356.6683003750004,1356.6683003750004,1356.742610041998,1356.742610041998,1356.742610041998,1358.1837651669994,0,,,,,,,,,,,,,,,21049999,0,2025-10-17_10h44.28.208,tilt_staircase,2024.2.4,120.34641764341205,2025-10-17 10h44.51.975870 -0400,
,,,0,0,0,,,,,,,,,,,,,,,,,,0,0,0,0,1358.209168999998,,,,,,,,,,,,,,,,,,,,,,,,,,,,,,,,,,,,,,,,,,,,,,,,,,,,,,,,,,posc_poss,30,15,15,-15,"[5, 2, 1, 0.5]",lin,1,1,8,3,12,69,down,0.5,6.0,6.0,30,1358.1851695000005,1358.209168999998,1358.6845169579974,1358.6845169579974,1358.7595010000005,1358.7595010000005,1358.7595010000005,1359.3511586249988,1,,,,,,,,,,,,,,,21049999,0,2025-10-17_10h44.28.208,tilt_staircase,2024.2.4,120.34641764341205,2025-10-17 10h44.51.975870 -0400,
,,,0,0,0,,,,,,,,,,,,,,,,,,0,0,0,0,1359.3758911669975,,,,,,,,,,,,,,,,,,,,,,,,,,,,,,,,,,,,,,,,,,,,,,,,,,,,,,,,,,posc_noss,30,15,15,-15,"[5, 2, 1, 0.5]",lin,1,1,8,5,12,70,down,1,0,0,,1359.3523109999987,1359.3758911669975,1359.8513187499993,1359.8513187499993,1359.926251916997,1359.926251916997,1359.926251916997,1360.5721082499986,1,,,,,,,,,,,,,,,21049999,0,2025-10-17_10h44.28.208,tilt_staircase,2024.2.4,120.34641764341205,2025-10-17 10h44.51.975870 -0400,
,,,0,0,0,,,,,,,,,,,,,,,,,,0,0,0,0,1360.578133957999,,,,,,,,,,,,,,,,,,,,,,,,,,,,,,,,,,,,,,,,,,,,,,,,,,,,,,,,,,posc_negs,30,15,15,-15,"[5, 2, 1, 0.5]",lin,1,1,8,1,12,71,down,1,-4,-4,-30,1360.5732767499976,1360.578133957999,1361.0676093330003,1361.0676093330003,1361.1488530829993,1361.1428996249997,1361.1428996249997,1363.3115262079991,0,,,,,,,,,,,,,,,21049999,0,2025-10-17_10h44.28.208,tilt_staircase,2024.2.4,120.34641764341205,2025-10-17 10h44.51.975870 -0400,
,,,0,0,0,,,,,,,,,,,,,,,,,,0,0,0,0,1363.3204478329972,,,,,,,,,,,,,,,,,,,,,,,,,,,,,,,,,,,,,,,,,,,,,,,,,,,,,,,,,,negc_poss,30,-15,15,-15,"[5, 2, 1, 0.5]",lin,1,1,8,2,13,72,up,0.5,4.5,4.5,30,1363.3126899169984,1363.3204478329972,1363.8091561250003,1363.8091561250003,1363.8822082080005,1363.8822082080005,1363.8822082080005,1364.862280792,1,,,,,,,,,,,,,,,21049999,0,2025-10-17_10h44.28.208,tilt_staircase,2024.2.4,120.34641764341205,2025-10-17 10h44.51.975870 -0400,
,,,0,0,0,,,,,,,,,,,,,,,,,,0,0,0,0,1364.871991541997,,,,,,,,,,,,,,,,,,,,,,,,,,,,,,,,,,,,,,,,,,,,,,,,,,,,,,,,,,posc_poss,30,15,15,-15,"[5, 2, 1, 0.5]",lin,1,1,8,3,13,73,down,0.5,5.5,5.5,30,1364.8638046669985,1364.871991541997,1365.3592729999982,1365.3592729999982,1365.4335637919976,1365.4335637919976,1365.4335637919976,1366.2453442919978,1,,,,,,,,,,,,,,,21049999,0,2025-10-17_10h44.28.208,tilt_staircase,2024.2.4,120.34641764341205,2025-10-17 10h44.51.975870 -0400,
,,,0,0,0,,,,,,,,,,,,,,,,,,0,0,0,0,1366.2545155829976,,,,,,,,,,,,,,,,,,,,,,,,,,,,,,,,,,,,,,,,,,,,,,,,,,,,,,,,,,posc_noss,30,15,15,-15,"[5, 2, 1, 0.5]",lin,1,1,8,5,13,74,down,1,-1,-1,,1366.2464818329972,1366.2545155829976,1366.7425884999975,1366.7425884999975,1366.8156380830005,1366.8156380830005,1366.8156380830005,1367.9289671669976,1,,,,,,,,,,,,,,,21049999,0,2025-10-17_10h44.28.208,tilt_staircase,2024.2.4,120.34641764341205,2025-10-17 10h44.51.975870 -0400,
,,,0,0,0,,,,,,,,,,,,,,,,,,0,0,0,0,1367.9382949579995,,,,,,,,,,,,,,,,,,,,,,,,,,,,,,,,,,,,,,,,,,,,,,,,,,,,,,,,,,posc_negs,30,15,15,-15,"[5, 2, 1, 0.5]",lin,1,1,8,1,13,75,up,0.5,-3.5,-3.5,-30,1367.930232499999,1367.9382949579995,1368.42600675,1368.42600675,1368.4992958749972,1368.4992958749972,1368.4992958749972,1369.1444819999997,0,,,,,,,,,,,,,,,21049999,0,2025-10-17_10h44.28.208,tilt_staircase,2024.2.4,120.34641764341205,2025-10-17 10h44.51.975870 -0400,
,,,0,0,0,,,,,,,,,,,,,,,,,,0,0,0,0,1369.153763708,,,,,,,,,,,,,,,,,,,,,,,,,,,,,,,,,,,,,,,,,,,,,,,,,,,,,,,,,,negc_negs,30,-15,15,-15,"[5, 2, 1, 0.5]",lin,1,1,8,0,13,76,up,0.5,-3.0,-3.0,-30,1369.145617332997,1369.153763708,1369.6426123329984,1369.6426123329984,1369.717190542,1369.717190542,1369.717190542,1370.4619600419974,0,,,,,,,,,,,,,,,21049999,0,2025-10-17_10h44.28.208,tilt_staircase,2024.2.4,120.34641764341205,2025-10-17 10h44.51.975870 -0400,
,,,0,0,0,,,,,,,,,,,,,,,,,,0,0,0,0,1370.4714814580002,,,,,,,,,,,,,,,,,,,,,,,,,,,,,,,,,,,,,,,,,,,,,,,,,,,,,,,,,,negc_noss,30,-15,15,-15,"[5, 2, 1, 0.5]",lin,1,1,8,4,13,77,up,0.5,-0.5,-0.5,,1370.4631898329972,1370.4714814580002,1370.959380917,1370.959380917,1371.0328354999983,1371.0328354999983,1371.0328354999983,1371.984668457997,0,,,,,,,,,,,,,,,21049999,0,2025-10-17_10h44.28.208,tilt_staircase,2024.2.4,120.34641764341205,2025-10-17 10h44.51.975870 -0400,
,,,0,0,0,,,,,,,,,,,,,,,,,,0,0,0,0,1372.0095232919994,,,,,,,,,,,,,,,,,,,,,,,,,,,,,,,,,,,,,,,,,,,,,,,,,,,,,,,,,,posc_poss,30,15,15,-15,"[5, 2, 1, 0.5]",lin,1,1,8,3,14,78,down,0.5,5.0,5.0,30,1371.9858206249992,1372.0095232919994,1372.4859984579998,1372.4859984579998,1372.5600183329989,1372.5600183329989,1372.5600183329989,1373.095228541999,1,,,,,,,,,,,,,,,21049999,0,2025-10-17_10h44.28.208,tilt_staircase,2024.2.4,120.34641764341205,2025-10-17 10h44.51.975870 -0400,
,,,0,0,0,,,,,,,,,,,,,,,,,,0,0,0,0,1373.1044629999997,,,,,,,,,,,,,,,,,,,,,,,,,,,,,,,,,,,,,,,,,,,,,,,,,,,,,,,,,,negc_noss,30,-15,15,-15,"[5, 2, 1, 0.5]",lin,1,1,8,4,14,79,up,0.5,0.0,0.0,,1373.096372707998,1373.1044629999997,1373.5928567079973,1373.5928567079973,1373.6665253749998,1373.6665253749998,1373.6665253749998,1374.6507529169976,0,,,,,,,,,,,,,,,21049999,0,2025-10-17_10h44.28.208,tilt_staircase,2024.2.4,120.34641764341205,2025-10-17 10h44.51.975870 -0400,
,,,0,0,0,,,,,,,,,,,,,,,,,,0,0,0,0,1374.6596300829988,,,,,,,,,,,,,,,,,,,,,,,,,,,,,,,,,,,,,,,,,,,,,,,,,,,,,,,,,,negc_poss,30,-15,15,-15,"[5, 2, 1, 0.5]",lin,1,1,8,2,14,80,down,0.5,4.0,4.0,30,1374.6518682079986,1374.6596300829988,1375.152241374999,1375.152241374999,1375.226441625,1375.226441625,1375.226441625,1377.1847912079975,0,,,,,,,,,,,,,,,21049999,0,2025-10-17_10h44.28.208,tilt_staircase,2024.2.4,120.34641764341205,2025-10-17 10h44.51.975870 -0400,
,,,0,0,0,,,,,,,,,,,,,,,,,,0,0,0,0,1377.20975025,,,,,,,,,,,,,,,,,,,,,,,,,,,,,,,,,,,,,,,,,,,,,,,,,,,,,,,,,,negc_negs,30,-15,15,-15,"[5, 2, 1, 0.5]",lin,1,1,8,0,14,81,up,0.5,-2.5,-2.5,-30,1377.1859317919989,1377.20975025,1377.6856780419985,1377.6856780419985,1377.7601717079997,1377.7601717079997,1377.7601717079997,1378.5017472079999,0,,,,,,,,,,,,,,,21049999,0,2025-10-17_10h44.28.208,tilt_staircase,2024.2.4,120.34641764341205,2025-10-17 10h44.51.975870 -0400,
,,,0,0,0,,,,,,,,,,,,,,,,,,0,0,0,0,1378.5265532919984,,,,,,,,,,,,,,,,,,,,,,,,,,,,,,,,,,,,,,,,,,,,,,,,,,,,,,,,,,posc_noss,30,15,15,-15,"[5, 2, 1, 0.5]",lin,1,1,8,5,14,82,down,1,-2,-2,,1378.5028824999972,1378.5265532919984,1379.0017934579992,1379.0017934579992,1379.0765887499983,1379.0765887499983,1379.0765887499983,1379.696002624998,0,,,,,,,,,,,,,,,21049999,0,2025-10-17_10h44.28.208,tilt_staircase,2024.2.4,120.34641764341205,2025-10-17 10h44.51.975870 -0400,
,,,0,0,0,,,,,,,,,,,,,,,,,,0,0,0,0,1379.7055822080001,,,,,,,,,,,,,,,,,,,,,,,,,,,,,,,,,,,,,,,,,,,,,,,,,,,,,,,,,,posc_negs,30,15,15,-15,"[5, 2, 1, 0.5]",lin,1,1,8,1,14,83,up,0.5,-3.0,-3.0,-30,1379.6973048750006,1379.7055822080001,1380.193133124998,1380.193133124998,1380.2673302080002,1380.2673302080002,1380.2673302080002,1380.7291911249995,1,,,,,,,,,,,,,,,21049999,0,2025-10-17_10h44.28.208,tilt_staircase,2024.2.4,120.34641764341205,2025-10-17 10h44.51.975870 -0400,
,,,0,0,0,,,,,,,,,,,,,,,,,,0,0,0,0,1380.7389208749992,,,,,,,,,,,,,,,,,,,,,,,,,,,,,,,,,,,,,,,,,,,,,,,,,,,,,,,,,,posc_noss,30,15,15,-15,"[5, 2, 1, 0.5]",lin,1,1,8,5,15,84,up,0.5,-1.5,-1.5,,1380.730619916998,1380.7389208749992,1381.226544582998,1381.226544582998,1381.2996692079978,1381.2996692079978,1381.2996692079978,1382.1461296669986,0,,,,,,,,,,,,,,,21049999,0,2025-10-17_10h44.28.208,tilt_staircase,2024.2.4,120.34641764341205,2025-10-17 10h44.51.975870 -0400,
,,,0,0,0,,,,,,,,,,,,,,,,,,0,0,0,0,1382.1554596669994,,,,,,,,,,,,,,,,,,,,,,,,,,,,,,,,,,,,,,,,,,,,,,,,,,,,,,,,,,negc_noss,30,-15,15,-15,"[5, 2, 1, 0.5]",lin,1,1,8,4,15,85,up,0.5,0.5,0.5,,1382.1472946249996,1382.1554596669994,1382.643121707999,1382.643121707999,1382.7177453330005,1382.7177453330005,1382.7177453330005,1398.0130457079977,0,,,,,,,,,,,,,,,21049999,0,2025-10-17_10h44.28.208,tilt_staircase,2024.2.4,120.34641764341205,2025-10-17 10h44.51.975870 -0400,
,,,0,0,0,,,,,,,,,,,,,,,,,,0,0,0,0,1398.0224967920003,,,,,,,,,,,,,,,,,,,,,,,,,,,,,,,,,,,,,,,,,,,,,,,,,,,,,,,,,,negc_negs,30,-15,15,-15,"[5, 2, 1, 0.5]",lin,1,1,8,0,15,86,up,0.5,-2.0,-2.0,-30,1398.014200499998,1398.0224967920003,1398.5104093329974,1398.5104093329974,1398.5837294579978,1398.5837294579978,1398.5837294579978,1399.0294519169984,1,,,,,,,,,,,,,,,21049999,0,2025-10-17_10h44.28.208,tilt_staircase,2024.2.4,120.34641764341205,2025-10-17 10h44.51.975870 -0400,
,,,0,0,0,,,,,,,,,,,,,,,,,,0,0,0,0,1399.0386090829998,,,,,,,,,,,,,,,,,,,,,,,,,,,,,,,,,,,,,,,,,,,,,,,,,,,,,,,,,,negc_poss,30,-15,15,-15,"[5, 2, 1, 0.5]",lin,1,1,8,2,15,87,up,0.5,4.5,4.5,30,1399.0306107079996,1399.0386090829998,1399.5272704579984,1399.5272704579984,1399.6001630829996,1399.6001630829996,1399.6001630829996,1400.0284360419973,0,,,,,,,,,,,,,,,21049999,0,2025-10-17_10h44.28.208,tilt_staircase,2024.2.4,120.34641764341205,2025-10-17 10h44.51.975870 -0400,
,,,0,0,0,,,,,,,,,,,,,,,,,,0,0,0,0,1400.0376114579994,,,,,,,,,,,,,,,,,,,,,,,,,,,,,,,,,,,,,,,,,,,,,,,,,,,,,,,,,,posc_poss,30,15,15,-15,"[5, 2, 1, 0.5]",lin,1,1,8,3,15,88,down,0.5,4.5,4.5,30,1400.0295677079994,1400.0376114579994,1400.519852041998,1400.519852041998,1400.6008435000003,1400.5943620420003,1400.5943620420003,1401.5460586249974,1,,,,,,,,,,,,,,,21049999,0,2025-10-17_10h44.28.208,tilt_staircase,2024.2.4,120.34641764341205,2025-10-17 10h44.51.975870 -0400,
,,,0,0,0,,,,,,,,,,,,,,,,,,0,0,0,0,1401.555202083,,,,,,,,,,,,,,,,,,,,,,,,,,,,,,,,,,,,,,,,,,,,,,,,,,,,,,,,,,posc_negs,30,15,15,-15,"[5, 2, 1, 0.5]",lin,1,1,8,1,15,89,down,0.5,-3.5,-3.5,-30,1401.5472047919975,1401.555202083,1402.0438331669975,1402.0438331669975,1402.1173075000006,1402.1173075000006,1402.1173075000006,1403.0856660829995,0,,,,,,,,,,,,,,,21049999,0,2025-10-17_10h44.28.208,tilt_staircase,2024.2.4,120.34641764341205,2025-10-17 10h44.51.975870 -0400,
,,,0,0,0,,,,,,,,,,,,,,,,,,0,0,0,0,1403.094917208,,,,,,,,,,,,,,,,,,,,,,,,,,,,,,,,,,,,,,,,,,,,,,,,,,,,,,,,,,negc_poss,30,-15,15,-15,"[5, 2, 1, 0.5]",lin,1,1,8,2,16,90,up,0.5,5.0,5.0,30,1403.0868112919998,1403.094917208,1403.586279791998,1403.586279791998,1403.6612092079995,1403.6612092079995,1403.6612092079995,1405.0962749169994,1,,,,,,,,,,,,,,,21049999,0,2025-10-17_10h44.28.208,tilt_staircase,2024.2.4,120.34641764341205,2025-10-17 10h44.51.975870 -0400,
,,,0,0,0,,,,,,,,,,,,,,,,,,0,0,0,0,1405.1056682919989,,,,,,,,,,,,,,,,,,,,,,,,,,,,,,,,,,,,,,,,,,,,,,,,,,,,,,,,,,negc_noss,30,-15,15,-15,"[5, 2, 1, 0.5]",lin,1,1,8,4,16,91,up,0.5,1.0,1.0,,1405.097415832999,1405.1056682919989,1405.593965,1405.593965,1405.6684100419989,1405.6684100419989,1405.6684100419989,1406.4191732079998,1,,,,,,,,,,,,,,,21049999,0,2025-10-17_10h44.28.208,tilt_staircase,2024.2.4,120.34641764341205,2025-10-17 10h44.51.975870 -0400,
,,,0,0,0,,,,,,,,,,,,,,,,,,0,0,0,0,1406.4442234999988,,,,,,,,,,,,,,,,,,,,,,,,,,,,,,,,,,,,,,,,,,,,,,,,,,,,,,,,,,negc_negs,30,-15,15,-15,"[5, 2, 1, 0.5]",lin,1,1,8,0,16,92,down,0.5,-2.5,-2.5,-30,1406.420285832999,1406.4442234999988,1406.9194230829999,1406.9194230829999,1406.9945591670003,1406.9945591670003,1406.9945591670003,1407.5372101249995,1,,,,,,,,,,,,,,,21049999,0,2025-10-17_10h44.28.208,tilt_staircase,2024.2.4,120.34641764341205,2025-10-17 10h44.51.975870 -0400,
,,,0,0,0,,,,,,,,,,,,,,,,,,0,0,0,0,1407.5465982079986,,,,,,,,,,,,,,,,,,,,,,,,,,,,,,,,,,,,,,,,,,,,,,,,,,,,,,,,,,posc_noss,30,15,15,-15,"[5, 2, 1, 0.5]",lin,1,1,8,5,16,93,up,0.5,-1.0,-1.0,,1407.5383871669983,1407.5465982079986,1408.0367945830003,1408.0367945830003,1408.1112525829994,1408.1112525829994,1408.1112525829994,1408.6361178329971,1,,,,,,,,,,,,,,,21049999,0,2025-10-17_10h44.28.208,tilt_staircase,2024.2.4,120.34641764341205,2025-10-17 10h44.51.975870 -0400,
,,,0,0,0,,,,,,,,,,,,,,,,,,0,0,0,0,1408.6608761669995,,,,,,,,,,,,,,,,,,,,,,,,,,,,,,,,,,,,,,,,,,,,,,,,,,,,,,,,,,posc_negs,30,15,15,-15,"[5, 2, 1, 0.5]",lin,1,1,8,1,16,94,up,0.5,-3.0,-3.0,-30,1408.6372381250003,1408.6608761669995,1409.1366798329982,1409.1366798329982,1409.2113521249994,1409.2113521249994,1409.2113521249994,1409.786409458,1,,,,,,,,,,,,,,,21049999,0,2025-10-17_10h44.28.208,tilt_staircase,2024.2.4,120.34641764341205,2025-10-17 10h44.51.975870 -0400,
,,,0,0,0,,,,,,,,,,,,,,,,,,0,0,0,0,1409.8110275,,,,,,,,,,,,,,,,,,,,,,,,,,,,,,,,,,,,,,,,,,,,,,,,,,,,,,,,,,posc_poss,30,15,15,-15,"[5, 2, 1, 0.5]",lin,1,1,8,3,16,95,down,0.5,4.0,4.0,30,1409.7875102079997,1409.8110275,1410.2864438329998,1410.2864438329998,1410.3612839169982,1410.3612839169982,1410.3612839169982,1412.1527805000005,0,,,,,,,,,,,,,,,21049999,0,2025-10-17_10h44.28.208,tilt_staircase,2024.2.4,120.34641764341205,2025-10-17 10h44.51.975870 -0400,
,,,0,0,0,,,,,,,,,,,,,,,,,,0,0,0,0,1412.1777782499994,,,,,,,,,,,,,,,,,,,,,,,,,,,,,,,,,,,,,,,,,,,,,,,,,,,,,,,,,,negc_poss,30,-15,15,-15,"[5, 2, 1, 0.5]",lin,1,1,8,2,17,96,down,0.5,4.5,4.5,30,1412.153926916999,1412.1777782499994,1412.6530963749974,1412.6530963749974,1412.7282788329976,1412.7282788329976,1412.7282788329976,1413.3192874579981,1,,,,,,,,,,,,,,,21049999,0,2025-10-17_10h44.28.208,tilt_staircase,2024.2.4,120.34641764341205,2025-10-17 10h44.51.975870 -0400,
,,,0,0,0,,,,,,,,,,,,,,,,,,0,0,0,0,1413.344482417,,,,,,,,,,,,,,,,,,,,,,,,,,,,,,,,,,,,,,,,,,,,,,,,,,,,,,,,,,posc_negs,30,15,15,-15,"[5, 2, 1, 0.5]",lin,1,1,8,1,17,97,down,0.5,-3.5,-3.5,-30,1413.3204164169983,1413.344482417,1413.8204118329995,1413.8204118329995,1413.8945052499985,1413.8945052499985,1413.8945052499985,1414.7811559170004,1,,,,,,,,,,,,,,,21049999,0,2025-10-17_10h44.28.208,tilt_staircase,2024.2.4,120.34641764341205,2025-10-17 10h44.51.975870 -0400,
,,,0,0,0,,,,,,,,,,,,,,,,,,0,0,0,0,1414.7908160419975,,,,,,,,,,,,,,,,,,,,,,,,,,,,,,,,,,,,,,,,,,,,,,,,,,,,,,,,,,posc_noss,30,15,15,-15,"[5, 2, 1, 0.5]",lin,1,1,8,5,17,98,down,0.5,-1.5,-1.5,,1414.7824028329997,1414.7908160419975,1415.2776332079993,1415.2776332079993,1415.350421207997,1415.350421207997,1415.350421207997,1416.6638588329988,1,,,,,,,,,,,,,,,21049999,0,2025-10-17_10h44.28.208,tilt_staircase,2024.2.4,120.34641764341205,2025-10-17 10h44.51.975870 -0400,
,,,0,0,0,,,,,,,,,,,,,,,,,,0,0,0,0,1416.672936666997,,,,,,,,,,,,,,,,,,,,,,,,,,,,,,,,,,,,,,,,,,,,,,,,,,,,,,,,,,negc_noss,30,-15,15,-15,"[5, 2, 1, 0.5]",lin,1,1,8,4,17,99,down,0.5,0.5,0.5,,1416.6649890829976,1416.672936666997,1417.160420207998,1417.160420207998,1417.234805541997,1417.234805541997,1417.234805541997,1417.9640084579987,1,,,,,,,,,,,,,,,21049999,0,2025-10-17_10h44.28.208,tilt_staircase,2024.2.4,120.34641764341205,2025-10-17 10h44.51.975870 -0400,
,,,0,0,0,,,,,,,,,,,,,,,,,,0,0,0,0,1417.974206625,,,,,,,,,,,,,,,,,,,,,,,,,,,,,,,,,,,,,,,,,,,,,,,,,,,,,,,,,,negc_negs,30,-15,15,-15,"[5, 2, 1, 0.5]",lin,1,1,8,0,17,100,down,0.5,-3.0,-3.0,-30,1417.9656485829983,1417.974206625,1418.4603873749984,1418.4603873749984,1418.5347024999974,1418.5347024999974,1418.5347024999974,1420.0471985000004,1,,,,,,,,,,,,,,,21049999,0,2025-10-17_10h44.28.208,tilt_staircase,2024.2.4,120.34641764341205,2025-10-17 10h44.51.975870 -0400,
,,,0,0,0,,,,,,,,,,,,,,,,,,0,0,0,0,1420.0566027079985,,,,,,,,,,,,,,,,,,,,,,,,,,,,,,,,,,,,,,,,,,,,,,,,,,,,,,,,,,posc_poss,30,15,15,-15,"[5, 2, 1, 0.5]",lin,1,1,8,3,17,101,up,0.5,4.5,4.5,30,1420.0484170419986,1420.0566027079985,1420.5446285420003,1420.5446285420003,1420.618550457999,1420.618550457999,1420.618550457999,1421.6810320000004,0,,,,,,,,,,,,,,,21049999,0,2025-10-17_10h44.28.208,tilt_staircase,2024.2.4,120.34641764341205,2025-10-17 10h44.51.975870 -0400,
,,,0,0,0,,,,,,,,,,,,,,,,,,0,0,0,0,1421.6908598749978,,,,,,,,,,,,,,,,,,,,,,,,,,,,,,,,,,,,,,,,,,,,,,,,,,,,,,,,,,posc_noss,30,15,15,-15,"[5, 2, 1, 0.5]",lin,1,1,8,5,18,102,down,0.5,-2.0,-2.0,,1421.6825890830005,1421.6908598749978,1422.1779286249985,1422.1779286249985,1422.2512032079976,1422.2512032079976,1422.2512032079976,1422.8471530829993,0,,,,,,,,,,,,,,,21049999,0,2025-10-17_10h44.28.208,tilt_staircase,2024.2.4,120.34641764341205,2025-10-17 10h44.51.975870 -0400,
,,,0,0,0,,,,,,,,,,,,,,,,,,0,0,0,0,1422.8563616249994,,,,,,,,,,,,,,,,,,,,,,,,,,,,,,,,,,,,,,,,,,,,,,,,,,,,,,,,,,negc_noss,30,-15,15,-15,"[5, 2, 1, 0.5]",lin,1,1,8,4,18,103,down,0.5,0.0,0.0,,1422.8482796669996,1422.8563616249994,1423.3446202499981,1423.3446202499981,1423.418388332997,1423.418388332997,1423.418388332997,1423.9304316249982,0,,,,,,,,,,,,,,,21049999,0,2025-10-17_10h44.28.208,tilt_staircase,2024.2.4,120.34641764341205,2025-10-17 10h44.51.975870 -0400,
,,,0,0,0,,,,,,,,,,,,,,,,,,0,0,0,0,1423.9395727919982,,,,,,,,,,,,,,,,,,,,,,,,,,,,,,,,,,,,,,,,,,,,,,,,,,,,,,,,,,posc_poss,30,15,15,-15,"[5, 2, 1, 0.5]",lin,1,1,8,3,18,104,up,0.5,5.0,5.0,30,1423.9315537080001,1423.9395727919982,1424.4279703749999,1424.4279703749999,1424.5023538329988,1424.5023538329988,1424.5023538329988,1425.1474638750005,0,,,,,,,,,,,,,,,21049999,0,2025-10-17_10h44.28.208,tilt_staircase,2024.2.4,120.34641764341205,2025-10-17 10h44.51.975870 -0400,
,,,0,0,0,,,,,,,,,,,,,,,,,,0,0,0,0,1425.156900832997,,,,,,,,,,,,,,,,,,,,,,,,,,,,,,,,,,,,,,,,,,,,,,,,,,,,,,,,,,posc_negs,30,15,15,-15,"[5, 2, 1, 0.5]",lin,1,1,8,1,18,105,down,0.5,-4.0,-4.0,-30,1425.1486177499974,1425.156900832997,1425.6447060419996,1425.6447060419996,1425.718066041998,1425.718066041998,1425.718066041998,1426.5204302919992,0,,,,,,,,,,,,,,,21049999,0,2025-10-17_10h44.28.208,tilt_staircase,2024.2.4,120.34641764341205,2025-10-17 10h44.51.975870 -0400,
,,,0,0,0,,,,,,,,,,,,,,,,,,0,0,0,0,1426.5448607079998,,,,,,,,,,,,,,,,,,,,,,,,,,,,,,,,,,,,,,,,,,,,,,,,,,,,,,,,,,negc_negs,30,-15,15,-15,"[5, 2, 1, 0.5]",lin,1,1,8,0,18,106,down,0.5,-3.5,-3.5,-30,1426.521557958,1426.5448607079998,1427.0208107079998,1427.0208107079998,1427.095323292,1427.095323292,1427.095323292,1428.104317292,0,,,,,,,,,,,,,,,21049999,0,2025-10-17_10h44.28.208,tilt_staircase,2024.2.4,120.34641764341205,2025-10-17 10h44.51.975870 -0400,
,,,0,0,0,,,,,,,,,,,,,,,,,,0,0,0,0,1428.1140300829975,,,,,,,,,,,,,,,,,,,,,,,,,,,,,,,,,,,,,,,,,,,,,,,,,,,,,,,,,,negc_poss,30,-15,15,-15,"[5, 2, 1, 0.5]",lin,1,1,8,2,18,107,down,0.5,4.0,4.0,30,1428.1055609169998,1428.1140300829975,1428.6038283749986,1428.6038283749986,1428.6784954579998,1428.6784954579998,1428.6784954579998,1430.1475891249975,0,,,,,,,,,,,,,,,21049999,0,2025-10-17_10h44.28.208,tilt_staircase,2024.2.4,120.34641764341205,2025-10-17 10h44.51.975870 -0400,
,,,0,0,0,,,,,,,,,,,,,,,,,,0,0,0,0,1430.1569930829974,,,,,,,,,,,,,,,,,,,,,,,,,,,,,,,,,,,,,,,,,,,,,,,,,,,,,,,,,,negc_poss,30,-15,15,-15,"[5, 2, 1, 0.5]",lin,1,1,8,2,19,108,up,0.5,4.5,4.5,30,1430.1487812499981,1430.1569930829974,1430.6448827919994,1430.6448827919994,1430.718377416997,1430.718377416997,1430.718377416997,1432.103384957998,0,,,,,,,,,,,,,,,21049999,0,2025-10-17_10h44.28.208,tilt_staircase,2024.2.4,120.34641764341205,2025-10-17 10h44.51.975870 -0400,
,,,0,0,0,,,,,,,,,,,,,,,,,,0,0,0,0,1432.1284464169985,,,,,,,,,,,,,,,,,,,,,,,,,,,,,,,,,,,,,,,,,,,,,,,,,,,,,,,,,,negc_noss,30,-15,15,-15,"[5, 2, 1, 0.5]",lin,1,1,8,4,19,109,up,0.5,0.5,0.5,,1432.1045087079983,1432.1284464169985,1432.6034327499983,1432.6034327499983,1432.6788661249993,1432.6788661249993,1432.6788661249993,1433.2312095419984,1,,,,,,,,,,,,,,,21049999,0,2025-10-17_10h44.28.208,tilt_staircase,2024.2.4,120.34641764341205,2025-10-17 10h44.51.975870 -0400,
,,,0,0,0,,,,,,,,,,,,,,,,,,0,0,0,0,1433.2406647499993,,,,,,,,,,,,,,,,,,,,,,,,,,,,,,,,,,,,,,,,,,,,,,,,,,,,,,,,,,posc_negs,30,15,15,-15,"[5, 2, 1, 0.5]",lin,1,1,8,1,19,110,up,0.5,-3.5,-3.5,-30,1433.2323613749977,1433.2406647499993,1433.728372499998,1433.728372499998,1433.8025627499992,1433.8025627499992,1433.8025627499992,1434.9482745419991,0,,,,,,,,,,,,,,,21049999,0,2025-10-17_10h44.28.208,tilt_staircase,2024.2.4,120.34641764341205,2025-10-17 10h44.51.975870 -0400,
,,,0,0,0,,,,,,,,,,,,,,,,,,0,0,0,0,1434.9580485829974,,,,,,,,,,,,,,,,,,,,,,,,,,,,,,,,,,,,,,,,,,,,,,,,,,,,,,,,,,negc_negs,30,-15,15,-15,"[5, 2, 1, 0.5]",lin,1,1,8,0,19,111,up,0.5,-3.0,-3.0,-30,1434.9496293329976,1434.9580485829974,1435.4442372919984,1435.4442372919984,1435.5186637919978,1435.5186637919978,1435.5186637919978,1437.3374164169982,0,,,,,,,,,,,,,,,21049999,0,2025-10-17_10h44.28.208,tilt_staircase,2024.2.4,120.34641764341205,2025-10-17 10h44.51.975870 -0400,
,,,0,0,0,,,,,,,,,,,,,,,,,,0,0,0,0,1437.361987166998,,,,,,,,,,,,,,,,,,,,,,,,,,,,,,,,,,,,,,,,,,,,,,,,,,,,,,,,,,posc_poss,30,15,15,-15,"[5, 2, 1, 0.5]",lin,1,1,8,3,19,112,up,0.5,5.5,5.5,30,1437.3385396669983,1437.361987166998,1437.8380426669974,1437.8380426669974,1437.9123956250005,1437.9123956250005,1437.9123956250005,1438.5145865419981,1,,,,,,,,,,,,,,,21049999,0,2025-10-17_10h44.28.208,tilt_staircase,2024.2.4,120.34641764341205,2025-10-17 10h44.51.975870 -0400,
,,,0,0,0,,,,,,,,,,,,,,,,,,0,0,0,0,1438.5241764579987,,,,,,,,,,,,,,,,,,,,,,,,,,,,,,,,,,,,,,,,,,,,,,,,,,,,,,,,,,posc_noss,30,15,15,-15,"[5, 2, 1, 0.5]",lin,1,1,8,5,19,113,up,0.5,-1.5,-1.5,,1438.516004707999,1438.5241764579987,1439.0120092500001,1439.0120092500001,1439.0842382499977,1439.0842382499977,1439.0842382499977,1439.654411083,0,,,,,,,,,,,,,,,21049999,0,2025-10-17_10h44.28.208,tilt_staircase,2024.2.4,120.34641764341205,2025-10-17 10h44.51.975870 -0400,
,,,0,0,0,,,,,,,,,,,,,,,,,,0,0,0,0,1439.6641048749989,,,,,,,,,,,,,,,,,,,,,,,,,,,,,,,,,,,,,,,,,,,,,,,,,,,,,,,,,,posc_noss,30,15,15,-15,"[5, 2, 1, 0.5]",lin,1,1,8,5,20,114,up,0.5,-1.0,-1.0,,1439.6556753330005,1439.6641048749989,1440.1549347919972,1440.1549347919972,1440.2292019999986,1440.2292019999986,1440.2292019999986,1441.0977520829983,0,,,,,,,,,,,,,,,21049999,0,2025-10-17_10h44.28.208,tilt_staircase,2024.2.4,120.34641764341205,2025-10-17 10h44.51.975870 -0400,
,,,0,0,0,,,,,,,,,,,,,,,,,,0,0,0,0,1441.1072687499982,,,,,,,,,,,,,,,,,,,,,,,,,,,,,,,,,,,,,,,,,,,,,,,,,,,,,,,,,,posc_negs,30,15,15,-15,"[5, 2, 1, 0.5]",lin,1,1,8,1,20,115,up,0.5,-3.0,-3.0,-30,1441.0988961250005,1441.1072687499982,1441.5953050829994,1441.5953050829994,1441.668483999998,1441.668483999998,1441.668483999998,1442.4142254170001,0,,,,,,,,,,,,,,,21049999,0,2025-10-17_10h44.28.208,tilt_staircase,2024.2.4,120.34641764341205,2025-10-17 10h44.51.975870 -0400,
,,,0,0,0,,,,,,,,,,,,,,,,,,0,0,0,0,1442.4236364169992,,,,,,,,,,,,,,,,,,,,,,,,,,,,,,,,,,,,,,,,,,,,,,,,,,,,,,,,,,negc_negs,30,-15,15,-15,"[5, 2, 1, 0.5]",lin,1,1,8,0,20,116,up,0.5,-2.5,-2.5,-30,1442.4153670419983,1442.4236364169992,1442.9120141249987,1442.9120141249987,1442.9838088329998,1442.9838088329998,1442.9838088329998,1445.2483559169996,0,,,,,,,,,,,,,,,21049999,0,2025-10-17_10h44.28.208,tilt_staircase,2024.2.4,120.34641764341205,2025-10-17 10h44.51.975870 -0400,
,,,0,0,0,,,,,,,,,,,,,,,,,,0,0,0,0,1445.2576259579982,,,,,,,,,,,,,,,,,,,,,,,,,,,,,,,,,,,,,,,,,,,,,,,,,,,,,,,,,,negc_poss,30,-15,15,-15,"[5, 2, 1, 0.5]",lin,1,1,8,2,20,117,up,0.5,5.0,5.0,30,1445.2496389579974,1445.2576259579982,1445.745530082997,1445.745530082997,1445.820080166999,1445.820080166999,1445.820080166999,1446.414544583,1,,,,,,,,,,,,,,,21049999,0,2025-10-17_10h44.28.208,tilt_staircase,2024.2.4,120.34641764341205,2025-10-17 10h44.51.975870 -0400,
,,,0,0,0,,,,,,,,,,,,,,,,,,0,0,0,0,1446.4236898749987,,,,,,,,,,,,,,,,,,,,,,,,,,,,,,,,,,,,,,,,,,,,,,,,,,,,,,,,,,posc_poss,30,15,15,-15,"[5, 2, 1, 0.5]",lin,1,1,8,3,20,118,down,0.5,5.0,5.0,30,1446.415677375,1446.4236898749987,1446.9123060829988,1446.9123060829988,1446.9850346249987,1446.9850346249987,1446.9850346249987,1447.932194541998,0,,,,,,,,,,,,,,,21049999,0,2025-10-17_10h44.28.208,tilt_staircase,2024.2.4,120.34641764341205,2025-10-17 10h44.51.975870 -0400,
,,,0,0,0,,,,,,,,,,,,,,,,,,0,0,0,0,1447.941784249997,,,,,,,,,,,,,,,,,,,,,,,,,,,,,,,,,,,,,,,,,,,,,,,,,,,,,,,,,,negc_noss,30,-15,15,-15,"[5, 2, 1, 0.5]",lin,1,1,8,4,20,119,down,0.5,0.0,0.0,,1447.9334514999973,1447.941784249997,1448.4288581250003,1448.4288581250003,1448.502133124999,1448.502133124999,1448.502133124999,1449.0482179169994,1,,,,,,,,,,,,,,,21049999,0,2025-10-17_10h44.28.208,tilt_staircase,2024.2.4,120.34641764341205,2025-10-17 10h44.51.975870 -0400,
,,,0,0,0,,,,,,,,,,,,,,,,,,0,0,0,0,1449.0577195829974,,,,,,,,,,,,,,,,,,,,,,,,,,,,,,,,,,,,,,,,,,,,,,,,,,,,,,,,,,posc_noss,30,15,15,-15,"[5, 2, 1, 0.5]",lin,1,1,8,5,21,120,up,0.5,-0.5,-0.5,,1449.0494133329994,1449.0577195829974,1449.5456931669978,1449.5456931669978,1449.6189406249978,1449.6189406249978,1449.6189406249978,1450.154290208,0,,,,,,,,,,,,,,,21049999,0,2025-10-17_10h44.28.208,tilt_staircase,2024.2.4,120.34641764341205,2025-10-17 10h44.51.975870 -0400,
,,,0,0,0,,,,,,,,,,,,,,,,,,0,0,0,0,1450.179202457999,,,,,,,,,,,,,,,,,,,,,,,,,,,,,,,,,,,,,,,,,,,,,,,,,,,,,,,,,,negc_noss,30,-15,15,-15,"[5, 2, 1, 0.5]",lin,1,1,8,4,21,121,down,0.5,-0.5,-0.5,,1450.1556521249986,1450.179202457999,1450.6547702919997,1450.6547702919997,1450.7293086249992,1450.7293086249992,1450.7293086249992,1451.931698417,1,,,,,,,,,,,,,,,21049999,0,2025-10-17_10h44.28.208,tilt_staircase,2024.2.4,120.34641764341205,2025-10-17 10h44.51.975870 -0400,
,,,0,0,0,,,,,,,,,,,,,,,,,,0,0,0,0,1451.9412015419985,,,,,,,,,,,,,,,,,,,,,,,,,,,,,,,,,,,,,,,,,,,,,,,,,,,,,,,,,,posc_poss,30,15,15,-15,"[5, 2, 1, 0.5]",lin,1,1,8,3,21,122,up,0.5,5.5,5.5,30,1451.9329866249973,1451.9412015419985,1452.4290737079973,1452.4290737079973,1452.5018566670005,1452.5018566670005,1452.5018566670005,1453.3986392919978,1,,,,,,,,,,,,,,,21049999,0,2025-10-17_10h44.28.208,tilt_staircase,2024.2.4,120.34641764341205,2025-10-17 10h44.51.975870 -0400,
,,,0,0,0,,,,,,,,,,,,,,,,,,0,0,0,0,1453.4083375419978,,,,,,,,,,,,,,,,,,,,,,,,,,,,,,,,,,,,,,,,,,,,,,,,,,,,,,,,,,negc_negs,30,-15,15,-15,"[5, 2, 1, 0.5]",lin,1,1,8,0,21,123,up,0.5,-2.0,-2.0,-30,1453.400111957999,1453.4083375419978,1453.8958504999973,1453.8958504999973,1453.9692371249985,1453.9692371249985,1453.9692371249985,1454.6049664579987,0,,,,,,,,,,,,,,,21049999,0,2025-10-17_10h44.28.208,tilt_staircase,2024.2.4,120.34641764341205,2025-10-17 10h44.51.975870 -0400,
,,,0,0,0,,,,,,,,,,,,,,,,,,0,0,0,0,1454.61426975,,,,,,,,,,,,,,,,,,,,,,,,,,,,,,,,,,,,,,,,,,,,,,,,,,,,,,,,,,posc_negs,30,15,15,-15,"[5, 2, 1, 0.5]",lin,1,1,8,1,21,124,up,0.5,-2.5,-2.5,-30,1454.6060992919993,1454.61426975,1455.1048029999984,1455.1048029999984,1455.1795282919993,1455.1795282919993,1455.1795282919993,1455.8211945000003,0,,,,,,,,,,,,,,,21049999,0,2025-10-17_10h44.28.208,tilt_staircase,2024.2.4,120.34641764341205,2025-10-17 10h44.51.975870 -0400,
,,,0,0,0,,,,,,,,,,,,,,,,,,0,0,0,0,1455.846004707997,,,,,,,,,,,,,,,,,,,,,,,,,,,,,,,,,,,,,,,,,,,,,,,,,,,,,,,,,,negc_poss,30,-15,15,-15,"[5, 2, 1, 0.5]",lin,1,1,8,2,21,125,down,0.5,4.5,4.5,30,1455.8223075419992,1455.846004707997,1456.321428416999,1456.321428416999,1456.3963057500005,1456.3963057500005,1456.3963057500005,1457.6480529999972,1,,,,,,,,,,,,,,,21049999,0,2025-10-17_10h44.28.208,tilt_staircase,2024.2.4,120.34641764341205,2025-10-17 10h44.51.975870 -0400,
,,,0,0,0,,,,,,,,,,,,,,,,,,0,0,0,0,1457.6573387079989,,,,,,,,,,,,,,,,,,,,,,,,,,,,,,,,,,,,,,,,,,,,,,,,,,,,,,,,,,negc_poss,30,-15,15,-15,"[5, 2, 1, 0.5]",lin,1,1,8,2,22,126,down,0.5,4.0,4.0,30,1457.6492201250003,1457.6573387079989,1458.1460110419976,1458.1460110419976,1458.219803707998,1458.219803707998,1458.219803707998,1458.6485434999995,0,,,,,,,,,,,,,,,21049999,0,2025-10-17_10h44.28.208,tilt_staircase,2024.2.4,120.34641764341205,2025-10-17 10h44.51.975870 -0400,
,,,0,0,0,,,,,,,,,,,,,,,,,,0,0,0,0,1458.6576976249999,,,,,,,,,,,,,,,,,,,,,,,,,,,,,,,,,,,,,,,,,,,,,,,,,,,,,,,,,,negc_noss,30,-15,15,-15,"[5, 2, 1, 0.5]",lin,1,1,8,4,22,127,down,0.5,-1.0,-1.0,,1458.6497014579982,1458.6576976249999,1459.1450741249973,1459.1450741249973,1459.2192477499993,1459.2192477499993,1459.2192477499993,1461.4986512920004,0,,,,,,,,,,,,,,,21049999,0,2025-10-17_10h44.28.208,tilt_staircase,2024.2.4,120.34641764341205,2025-10-17 10h44.51.975870 -0400,
,,,0,0,0,,,,,,,,,,,,,,,,,,0,0,0,0,1461.5081111670006,,,,,,,,,,,,,,,,,,,,,,,,,,,,,,,,,,,,,,,,,,,,,,,,,,,,,,,,,,posc_negs,30,15,15,-15,"[5, 2, 1, 0.5]",lin,1,1,8,1,22,128,up,0.5,-2.0,-2.0,-30,1461.4998421249984,1461.5081111670006,1461.9961581669995,1461.9961581669995,1462.070040874998,1462.070040874998,1462.070040874998,1462.4485508750004,1,,,,,,,,,,,,,,,21049999,0,2025-10-17_10h44.28.208,tilt_staircase,2024.2.4,120.34641764341205,2025-10-17 10h44.51.975870 -0400,
,,,0,0,0,,,,,,,,,,,,,,,,,,0,0,0,0,1462.4576826669982,,,,,,,,,,,,,,,,,,,,,,,,,,,,,,,,,,,,,,,,,,,,,,,,,,,,,,,,,,negc_negs,30,-15,15,-15,"[5, 2, 1, 0.5]",lin,1,1,8,0,22,129,up,0.5,-1.5,-1.5,-30,1462.4496731670006,1462.4576826669982,1462.9454856669981,1462.9454856669981,1463.0196865420003,1463.0196865420003,1463.0196865420003,1464.3151604999985,0,,,,,,,,,,,,,,,21049999,0,2025-10-17_10h44.28.208,tilt_staircase,2024.2.4,120.34641764341205,2025-10-17 10h44.51.975870 -0400,
,,,0,0,0,,,,,,,,,,,,,,,,,,0,0,0,0,1464.3242639579985,,,,,,,,,,,,,,,,,,,,,,,,,,,,,,,,,,,,,,,,,,,,,,,,,,,,,,,,,,posc_noss,30,15,15,-15,"[5, 2, 1, 0.5]",lin,1,1,8,5,22,130,up,0.5,0.0,0.0,,1464.3162984169976,1464.3242639579985,1464.8128226669978,1464.8128226669978,1464.8866321669993,1464.8866321669993,1464.8866321669993,1466.1319245829982,0,,,,,,,,,,,,,,,21049999,0,2025-10-17_10h44.28.208,tilt_staircase,2024.2.4,120.34641764341205,2025-10-17 10h44.51.975870 -0400,
,,,0,0,0,,,,,,,,,,,,,,,,,,0,0,0,0,1466.1410326669975,,,,,,,,,,,,,,,,,,,,,,,,,,,,,,,,,,,,,,,,,,,,,,,,,,,,,,,,,,posc_poss,30,15,15,-15,"[5, 2, 1, 0.5]",lin,1,1,8,3,22,131,down,0.5,5.0,5.0,30,1466.1330723329993,1466.1410326669975,1466.6296820829994,1466.6296820829994,1466.7034049169997,1466.7034049169997,1466.7034049169997,1467.2989819169998,1,,,,,,,,,,,,,,,21049999,0,2025-10-17_10h44.28.208,tilt_staircase,2024.2.4,120.34641764341205,2025-10-17 10h44.51.975870 -0400,
,,,0,0,0,,,,,,,,,,,,,,,,,,0,0,0,0,1467.3087176249974,,,,,,,,,,,,,,,,,,,,,,,,,,,,,,,,,,,,,,,,,,,,,,,,,,,,,,,,,,negc_poss,30,-15,15,-15,"[5, 2, 1, 0.5]",lin,1,1,8,2,23,132,up,0.5,4.5,4.5,30,1467.3003432499972,1467.3087176249974,1467.796198791999,1467.796198791999,1467.869945874998,1467.869945874998,1467.869945874998,1469.19905725,0,,,,,,,,,,,,,,,21049999,0,2025-10-17_10h44.28.208,tilt_staircase,2024.2.4,120.34641764341205,2025-10-17 10h44.51.975870 -0400,
,,,0,0,0,,,,,,,,,,,,,,,,,,0,0,0,0,1469.208343041999,,,,,,,,,,,,,,,,,,,,,,,,,,,,,,,,,,,,,,,,,,,,,,,,,,,,,,,,,,negc_negs,30,-15,15,-15,"[5, 2, 1, 0.5]",lin,1,1,8,0,23,133,up,0.5,-1.0,-1.0,-30,1469.2002172920002,1469.208343041999,1469.6963007079976,1469.6963007079976,1469.769784541997,1469.769784541997,1469.769784541997,1470.5714281250002,1,,,,,,,,,,,,,,,21049999,0,2025-10-17_10h44.28.208,tilt_staircase,2024.2.4,120.34641764341205,2025-10-17 10h44.51.975870 -0400,
,,,0,0,0,,,,,,,,,,,,,,,,,,0,0,0,0,1470.5964057499987,,,,,,,,,,,,,,,,,,,,,,,,,,,,,,,,,,,,,,,,,,,,,,,,,,,,,,,,,,posc_noss,30,15,15,-15,"[5, 2, 1, 0.5]",lin,1,1,8,5,23,134,up,0.5,0.5,0.5,,1470.5725869169983,1470.5964057499987,1471.0729390829983,1471.0729390829983,1471.146898125,1471.146898125,1471.146898125,1473.9888559579995,0,,,,,,,,,,,,,,,21049999,0,2025-10-17_10h44.28.208,tilt_staircase,2024.2.4,120.34641764341205,2025-10-17 10h44.51.975870 -0400,
,,,0,0,0,,,,,,,,,,,,,,,,,,0,0,0,0,1473.9990638749987,,,,,,,,,,,,,,,,,,,,,,,,,,,,,,,,,,,,,,,,,,,,,,,,,,,,,,,,,,posc_negs,30,15,15,-15,"[5, 2, 1, 0.5]",lin,1,1,8,1,23,135,down,0.5,-2.5,-2.5,-30,1473.9900162919985,1473.9990638749987,1474.4886872919997,1474.4886872919997,1474.5635014580002,1474.5635014580002,1474.5635014580002,1475.3154556249974,0,,,,,,,,,,,,,,,21049999,0,2025-10-17_10h44.28.208,tilt_staircase,2024.2.4,120.34641764341205,2025-10-17 10h44.51.975870 -0400,
,,,0,0,0,,,,,,,,,,,,,,,,,,0,0,0,0,1475.3246908330002,,,,,,,,,,,,,,,,,,,,,,,,,,,,,,,,,,,,,,,,,,,,,,,,,,,,,,,,,,posc_poss,30,15,15,-15,"[5, 2, 1, 0.5]",lin,1,1,8,3,23,136,down,0.5,4.5,4.5,30,1475.3166061249976,1475.3246908330002,1475.8133856669992,1475.8133856669992,1475.8864994169999,1475.8864994169999,1475.8864994169999,1476.4821945000003,1,,,,,,,,,,,,,,,21049999,0,2025-10-17_10h44.28.208,tilt_staircase,2024.2.4,120.34641764341205,2025-10-17 10h44.51.975870 -0400,
,,,0,0,0,,,,,,,,,,,,,,,,,,0,0,0,0,1476.4915537919987,,,,,,,,,,,,,,,,,,,,,,,,,,,,,,,,,,,,,,,,,,,,,,,,,,,,,,,,,,negc_noss,30,-15,15,-15,"[5, 2, 1, 0.5]",lin,1,1,8,4,23,137,up,0.5,-0.5,-0.5,,1476.4833299169986,1476.4915537919987,1476.9800256249982,1476.9800256249982,1477.053722749999,1477.053722749999,1477.053722749999,1478.4495481249978,0,,,,,,,,,,,,,,,21049999,0,2025-10-17_10h44.28.208,tilt_staircase,2024.2.4,120.34641764341205,2025-10-17 10h44.51.975870 -0400,
,,,0,0,0,,,,,,,,,,,,,,,,,,0,0,0,0,1478.4585553329998,,,,,,,,,,,,,,,,,,,,,,,,,,,,,,,,,,,,,,,,,,,,,,,,,,,,,,,,,,negc_noss,30,-15,15,-15,"[5, 2, 1, 0.5]",lin,1,1,8,4,24,138,up,0.5,0.0,0.0,,1478.4507718749992,1478.4585553329998,1478.9467621250005,1478.9467621250005,1479.0199840419991,1479.0199840419991,1479.0199840419991,1480.7160462499996,0,,,,,,,,,,,,,,,21049999,0,2025-10-17_10h44.28.208,tilt_staircase,2024.2.4,120.34641764341205,2025-10-17 10h44.51.975870 -0400,
,,,0,0,0,,,,,,,,,,,,,,,,,,0,0,0,0,1480.7254061249987,,,,,,,,,,,,,,,,,,,,,,,,,,,,,,,,,,,,,,,,,,,,,,,,,,,,,,,,,,posc_poss,30,15,15,-15,"[5, 2, 1, 0.5]",lin,1,1,8,3,24,139,down,0.5,4.0,4.0,30,1480.717308583,1480.7254061249987,1481.2135208750005,1481.2135208750005,1481.2873058330006,1481.2873058330006,1481.2873058330006,1481.782324124997,0,,,,,,,,,,,,,,,21049999,0,2025-10-17_10h44.28.208,tilt_staircase,2024.2.4,120.34641764341205,2025-10-17 10h44.51.975870 -0400,
,,,0,0,0,,,,,,,,,,,,,,,,,,0,0,0,0,1481.7914770419993,,,,,,,,,,,,,,,,,,,,,,,,,,,,,,,,,,,,,,,,,,,,,,,,,,,,,,,,,,negc_poss,30,-15,15,-15,"[5, 2, 1, 0.5]",lin,1,1,8,2,24,140,up,0.5,5.0,5.0,30,1481.7834725829998,1481.7914770419993,1482.2801608749978,1482.2801608749978,1482.3538147500003,1482.3538147500003,1482.3538147500003,1482.933033207999,1,,,,,,,,,,,,,,,21049999,0,2025-10-17_10h44.28.208,tilt_staircase,2024.2.4,120.34641764341205,2025-10-17 10h44.51.975870 -0400,
,,,0,0,0,,,,,,,,,,,,,,,,,,0,0,0,0,1482.9430305419992,,,,,,,,,,,,,,,,,,,,,,,,,,,,,,,,,,,,,,,,,,,,,,,,,,,,,,,,,,negc_negs,30,-15,15,-15,"[5, 2, 1, 0.5]",lin,1,1,8,0,24,141,down,0.5,-1.5,-1.5,-30,1482.9347990829992,1482.9430305419992,1483.4301236669999,1483.4301236669999,1483.5035104579983,1483.5035104579983,1483.5035104579983,1484.0826529999977,0,,,,,,,,,,,,,,,21049999,0,2025-10-17_10h44.28.208,tilt_staircase,2024.2.4,120.34641764341205,2025-10-17 10h44.51.975870 -0400,
,,,0,0,0,,,,,,,,,,,,,,,,,,0,0,0,0,1484.0922282079991,,,,,,,,,,,,,,,,,,,,,,,,,,,,,,,,,,,,,,,,,,,,,,,,,,,,,,,,,,posc_negs,30,15,15,-15,"[5, 2, 1, 0.5]",lin,1,1,8,1,24,142,up,0.5,-2.0,-2.0,-30,1484.0840569169995,1484.0922282079991,1484.5802023750002,1484.5802023750002,1484.6540467919986,1484.6540467919986,1484.6540467919986,1485.3735629580005,0,,,,,,,,,,,,,,,21049999,0,2025-10-17_10h44.28.208,tilt_staircase,2024.2.4,120.34641764341205,2025-10-17 10h44.51.975870 -0400,
,,,0,0,0,,,,,,,,,,,,,,,,,,0,0,0,0,1485.3830024169984,,,,,,,,,,,,,,,,,,,,,,,,,,,,,,,,,,,,,,,,,,,,,,,,,,,,,,,,,,posc_noss,30,15,15,-15,"[5, 2, 1, 0.5]",lin,1,1,8,5,24,143,up,0.5,1.0,1.0,,1485.3747095830004,1485.3830024169984,1485.872590125,1485.872590125,1485.9477086669976,1485.9477086669976,1485.9477086669976,1487.3661783749994,0,,,,,,,,,,,,,,,21049999,0,2025-10-17_10h44.28.208,tilt_staircase,2024.2.4,120.34641764341205,2025-10-17 10h44.51.975870 -0400,
,,,0,0,0,,,,,,,,,,,,,,,,,,0,0,0,0,1487.375343249998,,,,,,,,,,,,,,,,,,,,,,,,,,,,,,,,,,,,,,,,,,,,,,,,,,,,,,,,,,negc_noss,30,-15,15,-15,"[5, 2, 1, 0.5]",lin,1,1,8,4,25,144,up,0.5,0.5,0.5,,1487.3673617919994,1487.375343249998,1487.862877749998,1487.862877749998,1487.9375264169976,1487.9375264169976,1487.9375264169976,1488.523750207998,0,,,,,,,,,,,,,,,21049999,0,2025-10-17_10h44.28.208,tilt_staircase,2024.2.4,120.34641764341205,2025-10-17 10h44.51.975870 -0400,
,,,0,0,0,,,,,,,,,,,,,,,,,,0,0,0,0,1488.5332397079983,,,,,,,,,,,,,,,,,,,,,,,,,,,,,,,,,,,,,,,,,,,,,,,,,,,,,,,,,,negc_negs,30,-15,15,-15,"[5, 2, 1, 0.5]",lin,1,1,8,0,25,145,up,0.5,-1.0,-1.0,-30,1488.5250176669979,1488.5332397079983,1489.0229348329995,1489.0229348329995,1489.097619166998,1489.097619166998,1489.097619166998,1489.5063663330002,1,,,,,,,,,,,,,,,21049999,0,2025-10-17_10h44.28.208,tilt_staircase,2024.2.4,120.34641764341205,2025-10-17 10h44.51.975870 -0400,
,,,0,0,0,,,,,,,,,,,,,,,,,,0,0,0,0,1489.515635249998,,,,,,,,,,,,,,,,,,,,,,,,,,,,,,,,,,,,,,,,,,,,,,,,,,,,,,,,,,posc_poss,30,15,15,-15,"[5, 2, 1, 0.5]",lin,1,1,8,3,25,146,up,0.5,4.5,4.5,30,1489.5075249580004,1489.515635249998,1490.0062477499996,1490.0062477499996,1490.0807079579972,1490.0807079579972,1490.0807079579972,1492.0062740829999,0,,,,,,,,,,,,,,,21049999,0,2025-10-17_10h44.28.208,tilt_staircase,2024.2.4,120.34641764341205,2025-10-17 10h44.51.975870 -0400,
,,,0,0,0,,,,,,,,,,,,,,,,,,0,0,0,0,1492.0163252499988,,,,,,,,,,,,,,,,,,,,,,,,,,,,,,,,,,,,,,,,,,,,,,,,,,,,,,,,,,negc_poss,30,-15,15,-15,"[5, 2, 1, 0.5]",lin,1,1,8,2,25,147,down,0.5,4.5,4.5,30,1492.0074621249987,1492.0163252499988,1492.50585125,1492.50585125,1492.5810297499993,1492.5810297499993,1492.5810297499993,1493.7559185419996,0,,,,,,,,,,,,,,,21049999,0,2025-10-17_10h44.28.208,tilt_staircase,2024.2.4,120.34641764341205,2025-10-17 10h44.51.975870 -0400,
,,,0,0,0,,,,,,,,,,,,,,,,,,0,0,0,0,1493.780753957999,,,,,,,,,,,,,,,,,,,,,,,,,,,,,,,,,,,,,,,,,,,,,,,,,,,,,,,,,,posc_noss,30,15,15,-15,"[5, 2, 1, 0.5]",lin,1,1,8,5,25,148,up,0.5,1.5,1.5,,1493.7570922919986,1493.780753957999,1494.2564437919973,1494.2564437919973,1494.3307649169983,1494.3307649169983,1494.3307649169983,1495.656065916999,1,,,,,,,,,,,,,,,21049999,0,2025-10-17_10h44.28.208,tilt_staircase,2024.2.4,120.34641764341205,2025-10-17 10h44.51.975870 -0400,
,,,0,0,0,,,,,,,,,,,,,,,,,,0,0,0,0,1495.6808333749977,,,,,,,,,,,,,,,,,,,,,,,,,,,,,,,,,,,,,,,,,,,,,,,,,,,,,,,,,,posc_negs,30,15,15,-15,"[5, 2, 1, 0.5]",lin,1,1,8,1,25,149,up,0.5,-1.5,-1.5,-30,1495.6571722499975,1495.6808333749977,1496.1568669579974,1496.1568669579974,1496.2311520419971,1496.2311520419971,1496.2311520419971,1497.0726323749986,0,,,,,,,,,,,,,,,21049999,0,2025-10-17_10h44.28.208,tilt_staircase,2024.2.4,120.34641764341205,2025-10-17 10h44.51.975870 -0400,
,,,0,0,0,,,,,,,,,,,,,,,,,,0,0,0,0,1497.0975808749972,,,,,,,,,,,,,,,,,,,,,,,,,,,,,,,,,,,,,,,,,,,,,,,,,,,,,,,,,,posc_noss,30,15,15,-15,"[5, 2, 1, 0.5]",lin,1,1,8,5,26,150,down,0.5,1.0,1.0,,1497.0738042079975,1497.0975808749972,1497.573222666997,1497.573222666997,1497.647900707998,1497.647900707998,1497.647900707998,1499.0728116249993,0,,,,,,,,,,,,,,,21049999,0,2025-10-17_10h44.28.208,tilt_staircase,2024.2.4,120.34641764341205,2025-10-17 10h44.51.975870 -0400,
,,,0,0,0,,,,,,,,,,,,,,,,,,0,0,0,0,1499.0976713329983,,,,,,,,,,,,,,,,,,,,,,,,,,,,,,,,,,,,,,,,,,,,,,,,,,,,,,,,,,posc_noss,30,15,15,-15,"[5, 2, 1, 0.5]",lin,1,1,8,5,27,151,up,0.5,1.5,1.5,,1499.0739898329994,1499.0976713329983,1499.5735517499998,1499.5735517499998,1499.6479702920005,1499.6479702920005,1499.6479702920005,1500.2236634999972,0,,,,,,,,,,,,,,,21049999,0,2025-10-17_10h44.28.208,tilt_staircase,2024.2.4,120.34641764341205,2025-10-17 10h44.51.975870 -0400,
,,,0,0,0,,,,,,,,,,,,,,,,,,0,0,0,0,1500.2332006670003,,,,,,,,,,,,,,,,,,,,,,,,,,,,,,,,,,,,,,,,,,,,,,,,,,,,,,,,,,posc_noss,30,15,15,-15,"[5, 2, 1, 0.5]",lin,1,1,8,5,28,152,up,0.5,2.0,2.0,,1500.2248256249986,1500.2332006670003,1500.723319749999,1500.723319749999,1500.797977332997,1500.797977332997,1500.797977332997,1501.2669109579983,0,,,,,,,,,,,,,,,21049999,0,2025-10-17_10h44.28.208,tilt_staircase,2024.2.4,120.34641764341205,2025-10-17 10h44.51.975870 -0400,
,,,0,0,0,,,,,,,,,,,,,,,,,,0,0,0,0,1501.2768807499997,,,,,,,,,,,,,,,,,,,,,,,,,,,,,,,,,,,,,,,,,,,,,,,,,,,,,,,,,,posc_noss,30,15,15,-15,"[5, 2, 1, 0.5]",lin,1,1,8,5,29,153,up,0.5,2.5,2.5,,1501.268610916999,1501.2768807499997,1501.7643077499997,1501.7643077499997,1501.8380675419976,1501.8380675419976,1501.8380675419976,1503.1566802919988,0,,,,,,,,,,,,,,,21049999,0,2025-10-17_10h44.28.208,tilt_staircase,2024.2.4,120.34641764341205,2025-10-17 10h44.51.975870 -0400,
,,,0,0,0,,,,,,,,,,,,,,,,,,0,0,0,0,1503.1664754999983,,,,,,,,,,,,,,,,,,,,,,,,,,,,,,,,,,,,,,,,,,,,,,,,,,,,,,,,,,posc_noss,30,15,15,-15,"[5, 2, 1, 0.5]",lin,1,1,8,5,30,154,up,0.5,3.0,3.0,,1503.1578497919982,1503.1664754999983,1503.6560257079982,1503.6560257079982,1503.7314454579973,1503.7314454579973,1503.7314454579973,1504.923435875,0,,,,,,,,,,,,,,,21049999,0,2025-10-17_10h44.28.208,tilt_staircase,2024.2.4,120.34641764341205,2025-10-17 10h44.51.975870 -0400,
,,,0,0,0,,,,,,,,,,,,,,,,,,0,0,0,0,1504.9333759170004,,,,,,,,,,,,,,,,,,,,,,,,,,,,,,,,,,,,,,,,,,,,,,,,,,,,,,,,,,posc_noss,30,15,15,-15,"[5, 2, 1, 0.5]",lin,1,1,8,5,31,155,up,0.5,3.5,3.5,,1504.9248902079999,1504.9333759170004,1505.4236640829986,1505.4236640829986,1505.4978841249977,1505.4978841249977,1505.4978841249977,1509.3893527919972,1,,,,,,,,,,,,,,,21049999,0,2025-10-17_10h44.28.208,tilt_staircase,2024.2.4,120.34641764341205,2025-10-17 10h44.51.975870 -0400,
,,,1,0,1,,,,,,,,,,,,,,,,,,1,0,1,0,1524.1545508749987,,,,,,,,,,,,,,,,,,,,,,,,,,,,,,,,,,,,,,,,,,,,,,,,,,,,,,,,,,negc_negs,30,-15,15,-15,"[5, 2, 1, 0.5]",lin,1,1,8,0,1,0,start,5,-15,-15,-30,1524.1459221669975,1524.1545508749987,1524.6317478329984,1524.6317478329984,1524.705355957998,1524.705355957998,1524.705355957998,1526.1276490419987,0,1509.3895316669987,1509.399397833,1509.399397833,1524.134040375,space,14.723710707999999,None,,,,,,,,21049999,0,2025-10-17_10h44.28.208,tilt_staircase,2024.2.4,120.34641764341205,2025-10-17 10h44.51.975870 -0400,
,,,1,0,1,,,,,,,,,,,,,,,,,,1,0,1,0,1526.1342135419982,,,,,,,,,,,,,,,,,,,,,,,,,,,,,,,,,,,,,,,,,,,,,,,,,,,,,,,,,,posc_noss,30,15,15,-15,"[5, 2, 1, 0.5]",lin,1,1,8,5,1,1,start,5,15,15,,1526.1288444579986,1526.1342135419982,1526.6239574169995,1526.6239574169995,1526.7053113330003,1526.6989230420004,1526.6989230420004,1527.0837993329988,1,,,,,,,,,,,,,,,21049999,0,2025-10-17_10h44.28.208,tilt_staircase,2024.2.4,120.34641764341205,2025-10-17 10h44.51.975870 -0400,
,,,1,0,1,,,,,,,,,,,,,,,,,,1,0,1,0,1527.0930161249998,,,,,,,,,,,,,,,,,,,,,,,,,,,,,,,,,,,,,,,,,,,,,,,,,,,,,,,,,,posc_negs,30,15,15,-15,"[5, 2, 1, 0.5]",lin,1,1,8,1,1,2,start,5,15,15,-30,1527.0849593329986,1527.0930161249998,1527.581942375,1527.581942375,1527.6547094999987,1527.6547094999987,1527.6547094999987,1528.2845508749997,1,,,,,,,,,,,,,,,21049999,0,2025-10-17_10h44.28.208,tilt_staircase,2024.2.4,120.34641764341205,2025-10-17 10h44.51.975870 -0400,
,,,1,0,1,,,,,,,,,,,,,,,,,,1,0,1,0,1528.2939846669979,,,,,,,,,,,,,,,,,,,,,,,,,,,,,,,,,,,,,,,,,,,,,,,,,,,,,,,,,,posc_poss,30,15,15,-15,"[5, 2, 1, 0.5]",lin,1,1,8,3,1,3,start,5,15,15,30,1528.2859814170006,1528.2939846669979,1528.7811251669991,1528.7811251669991,1528.8555311669988,1528.8555311669988,1528.8555311669988,1529.6005938749986,1,,,,,,,,,,,,,,,21049999,0,2025-10-17_10h44.28.208,tilt_staircase,2024.2.4,120.34641764341205,2025-10-17 10h44.51.975870 -0400,
,,,1,0,1,,,,,,,,,,,,,,,,,,1,0,1,0,1529.6098959999981,,,,,,,,,,,,,,,,,,,,,,,,,,,,,,,,,,,,,,,,,,,,,,,,,,,,,,,,,,negc_poss,30,-15,15,-15,"[5, 2, 1, 0.5]",lin,1,1,8,2,1,4,start,5,-15,-15,30,1529.6017239169996,1529.6098959999981,1530.0986419580004,1530.0986419580004,1530.1727741249997,1530.1727741249997,1530.1727741249997,1530.6103429169998,0,,,,,,,,,,,,,,,21049999,0,2025-10-17_10h44.28.208,tilt_staircase,2024.2.4,120.34641764341205,2025-10-17 10h44.51.975870 -0400,
,,,1,0,1,,,,,,,,,,,,,,,,,,1,0,1,0,1530.6169597499975,,,,,,,,,,,,,,,,,,,,,,,,,,,,,,,,,,,,,,,,,,,,,,,,,,,,,,,,,,negc_noss,30,-15,15,-15,"[5, 2, 1, 0.5]",lin,1,1,8,4,1,5,start,5,-15,-15,,1530.6114927499984,1530.6169597499975,1531.1083105830003,1531.1083105830003,1531.1885586669996,1531.1825181669992,1531.1825181669992,1531.7250703329992,0,,,,,,,,,,,,,,,21049999,0,2025-10-17_10h44.28.208,tilt_staircase,2024.2.4,120.34641764341205,2025-10-17 10h44.51.975870 -0400,
,,,1,0,1,,,,,,,,,,,,,,,,,,1,0,1,0,1531.7347816250003,,,,,,,,,,,,,,,,,,,,,,,,,,,,,,,,,,,,,,,,,,,,,,,,,,,,,,,,,,negc_poss,30,-15,15,-15,"[5, 2, 1, 0.5]",lin,1,1,8,2,2,6,up,5,-10,-10,30,1531.7265219170004,1531.7347816250003,1532.2240526669993,1532.2240526669993,1532.29900825,1532.29900825,1532.29900825,1532.806314333,0,,,,,,,,,,,,,,,21049999,0,2025-10-17_10h44.28.208,tilt_staircase,2024.2.4,120.34641764341205,2025-10-17 10h44.51.975870 -0400,
,,,1,0,1,,,,,,,,,,,,,,,,,,1,0,1,0,1532.8152727919987,,,,,,,,,,,,,,,,,,,,,,,,,,,,,,,,,,,,,,,,,,,,,,,,,,,,,,,,,,posc_poss,30,15,15,-15,"[5, 2, 1, 0.5]",lin,1,1,8,3,2,7,down,5,10,10,30,1532.8074288749995,1532.8152727919987,1533.307321291999,1533.307321291999,1533.3822105830004,1533.3822105830004,1533.3822105830004,1533.984730666998,1,,,,,,,,,,,,,,,21049999,0,2025-10-17_10h44.28.208,tilt_staircase,2024.2.4,120.34641764341205,2025-10-17 10h44.51.975870 -0400,
,,,1,0,1,,,,,,,,,,,,,,,,,,1,0,1,0,1533.9938650829972,,,,,,,,,,,,,,,,,,,,,,,,,,,,,,,,,,,,,,,,,,,,,,,,,,,,,,,,,,negc_noss,30,-15,15,-15,"[5, 2, 1, 0.5]",lin,1,1,8,4,2,8,up,5,-10,-10,,1533.9858791249972,1533.9938650829972,1534.482071208,1534.482071208,1534.5567292499982,1534.5567292499982,1534.5567292499982,1535.0020409169992,0,,,,,,,,,,,,,,,21049999,0,2025-10-17_10h44.28.208,tilt_staircase,2024.2.4,120.34641764341205,2025-10-17 10h44.51.975870 -0400,
,,,1,0,1,,,,,,,,,,,,,,,,,,1,0,1,0,1535.0115248749971,,,,,,,,,,,,,,,,,,,,,,,,,,,,,,,,,,,,,,,,,,,,,,,,,,,,,,,,,,posc_noss,30,15,15,-15,"[5, 2, 1, 0.5]",lin,1,1,8,5,2,9,down,5,10,10,,1535.0032935829986,1535.0115248749971,1535.4987444170001,1535.4987444170001,1535.5720235829976,1535.5720235829976,1535.5720235829976,1535.9745644169998,1,,,,,,,,,,,,,,,21049999,0,2025-10-17_10h44.28.208,tilt_staircase,2024.2.4,120.34641764341205,2025-10-17 10h44.51.975870 -0400,
,,,1,0,1,,,,,,,,,,,,,,,,,,1,0,1,0,1535.983822582999,,,,,,,,,,,,,,,,,,,,,,,,,,,,,,,,,,,,,,,,,,,,,,,,,,,,,,,,,,negc_negs,30,-15,15,-15,"[5, 2, 1, 0.5]",lin,1,1,8,0,2,10,up,5,-10,-10,-30,1535.9756869169978,1535.983822582999,1536.474567166999,1536.474567166999,1536.549173416999,1536.549173416999,1536.549173416999,1537.100797332998,0,,,,,,,,,,,,,,,21049999,0,2025-10-17_10h44.28.208,tilt_staircase,2024.2.4,120.34641764341205,2025-10-17 10h44.51.975870 -0400,
,,,1,0,1,,,,,,,,,,,,,,,,,,1,0,1,0,1537.110284167,,,,,,,,,,,,,,,,,,,,,,,,,,,,,,,,,,,,,,,,,,,,,,,,,,,,,,,,,,posc_negs,30,15,15,-15,"[5, 2, 1, 0.5]",lin,1,1,8,1,2,11,down,5,10,10,-30,1537.1019448749976,1537.110284167,1537.5988236249977,1537.5988236249977,1537.6728009170001,1537.6728009170001,1537.6728009170001,1538.201574374998,1,,,,,,,,,,,,,,,21049999,0,2025-10-17_10h44.28.208,tilt_staircase,2024.2.4,120.34641764341205,2025-10-17 10h44.51.975870 -0400,
,,,1,0,1,,,,,,,,,,,,,,,,,,1,0,1,0,1538.2112338749976,,,,,,,,,,,,,,,,,,,,,,,,,,,,,,,,,,,,,,,,,,,,,,,,,,,,,,,,,,negc_poss,30,-15,15,-15,"[5, 2, 1, 0.5]",lin,1,1,8,2,3,12,up,5,-5,-5,30,1538.2028402920005,1538.2112338749976,1538.6988167499985,1538.6988167499985,1538.7726094579994,1538.7726094579994,1538.7726094579994,1539.2013322919993,0,,,,,,,,,,,,,,,21049999,0,2025-10-17_10h44.28.208,tilt_staircase,2024.2.4,120.34641764341205,2025-10-17 10h44.51.975870 -0400,
,,,1,0,1,,,,,,,,,,,,,,,,,,1,0,1,0,1539.210727624999,,,,,,,,,,,,,,,,,,,,,,,,,,,,,,,,,,,,,,,,,,,,,,,,,,,,,,,,,,posc_negs,30,15,15,-15,"[5, 2, 1, 0.5]",lin,1,1,8,1,3,13,down,5,5,5,-30,1539.202467791998,1539.210727624999,1539.6989249580001,1539.6989249580001,1539.7730370829995,1539.7730370829995,1539.7730370829995,1540.2409190830003,1,,,,,,,,,,,,,,,21049999,0,2025-10-17_10h44.28.208,tilt_staircase,2024.2.4,120.34641764341205,2025-10-17 10h44.51.975870 -0400,
,,,1,0,1,,,,,,,,,,,,,,,,,,1,0,1,0,1540.2658022079995,,,,,,,,,,,,,,,,,,,,,,,,,,,,,,,,,,,,,,,,,,,,,,,,,,,,,,,,,,posc_noss,30,15,15,-15,"[5, 2, 1, 0.5]",lin,1,1,8,5,3,14,down,5,5,5,,1540.242235499998,1540.2658022079995,1540.7421658329986,1540.7421658329986,1540.8161672079987,1540.8161672079987,1540.8161672079987,1541.351068,1,,,,,,,,,,,,,,,21049999,0,2025-10-17_10h44.28.208,tilt_staircase,2024.2.4,120.34641764341205,2025-10-17 10h44.51.975870 -0400,
,,,1,0,1,,,,,,,,,,,,,,,,,,1,0,1,0,1541.3604956669988,,,,,,,,,,,,,,,,,,,,,,,,,,,,,,,,,,,,,,,,,,,,,,,,,,,,,,,,,,posc_poss,30,15,15,-15,"[5, 2, 1, 0.5]",lin,1,1,8,3,3,15,down,5,5,5,30,1541.3522192079981,1541.3604956669988,1541.8491413329975,1541.8491413329975,1541.9222004999974,1541.9222004999974,1541.9222004999974,1543.2079500830005,1,,,,,,,,,,,,,,,21049999,0,2025-10-17_10h44.28.208,tilt_staircase,2024.2.4,120.34641764341205,2025-10-17 10h44.51.975870 -0400,
,,,1,0,1,,,,,,,,,,,,,,,,,,1,0,1,0,1543.2325471250006,,,,,,,,,,,,,,,,,,,,,,,,,,,,,,,,,,,,,,,,,,,,,,,,,,,,,,,,,,negc_noss,30,-15,15,-15,"[5, 2, 1, 0.5]",lin,1,1,8,4,3,16,up,5,-5,-5,,1543.2090623330005,1543.2325471250006,1543.7083786669973,1543.7083786669973,1543.7827433329985,1543.7827433329985,1543.7827433329985,1544.1684286669988,0,,,,,,,,,,,,,,,21049999,0,2025-10-17_10h44.28.208,tilt_staircase,2024.2.4,120.34641764341205,2025-10-17 10h44.51.975870 -0400,
,,,1,0,1,,,,,,,,,,,,,,,,,,1,0,1,0,1544.1779527500003,,,,,,,,,,,,,,,,,,,,,,,,,,,,,,,,,,,,,,,,,,,,,,,,,,,,,,,,,,negc_negs,30,-15,15,-15,"[5, 2, 1, 0.5]",lin,1,1,8,0,3,17,up,5,-5,-5,-30,1544.1698419579989,1544.1779527500003,1544.6657566249996,1544.6657566249996,1544.739306042,1544.739306042,1544.739306042,1545.2025143329993,1,,,,,,,,,,,,,,,21049999,0,2025-10-17_10h44.28.208,tilt_staircase,2024.2.4,120.34641764341205,2025-10-17 10h44.51.975870 -0400,
,,,1,0,1,,,,,,,,,,,,,,,,,,1,0,1,0,1545.2122610000006,,,,,,,,,,,,,,,,,,,,,,,,,,,,,,,,,,,,,,,,,,,,,,,,,,,,,,,,,,posc_negs,30,15,15,-15,"[5, 2, 1, 0.5]",lin,1,1,8,1,4,18,down,5,0,0,-30,1545.203890375,1545.2122610000006,1545.6991337079999,1545.6991337079999,1545.7725004579988,1545.7725004579988,1545.7725004579988,1547.1852677919996,1,,,,,,,,,,,,,,,21049999,0,2025-10-17_10h44.28.208,tilt_staircase,2024.2.4,120.34641764341205,2025-10-17 10h44.51.975870 -0400,
,,,1,0,1,,,,,,,,,,,,,,,,,,1,0,1,0,1547.1943944999985,,,,,,,,,,,,,,,,,,,,,,,,,,,,,,,,,,,,,,,,,,,,,,,,,,,,,,,,,,negc_poss,30,-15,15,-15,"[5, 2, 1, 0.5]",lin,1,1,8,2,4,19,up,5,0,0,30,1547.1864095419987,1547.1943944999985,1547.6825524999986,1547.6825524999986,1547.7560792499971,1547.7560792499971,1547.7560792499971,1548.252948207999,0,,,,,,,,,,,,,,,21049999,0,2025-10-17_10h44.28.208,tilt_staircase,2024.2.4,120.34641764341205,2025-10-17 10h44.51.975870 -0400,
,,,1,0,1,,,,,,,,,,,,,,,,,,1,0,1,0,1548.2634442499984,,,,,,,,,,,,,,,,,,,,,,,,,,,,,,,,,,,,,,,,,,,,,,,,,,,,,,,,,,posc_poss,30,15,15,-15,"[5, 2, 1, 0.5]",lin,1,1,8,3,4,20,down,5,0,0,30,1548.254747125,1548.2634442499984,1548.7492252919983,1548.7492252919983,1548.8225786669973,1548.8225786669973,1548.8225786669973,1549.2691113330002,0,,,,,,,,,,,,,,,21049999,0,2025-10-17_10h44.28.208,tilt_staircase,2024.2.4,120.34641764341205,2025-10-17 10h44.51.975870 -0400,
,,,1,0,1,,,,,,,,,,,,,,,,,,1,0,1,0,1549.2788325420006,,,,,,,,,,,,,,,,,,,,,,,,,,,,,,,,,,,,,,,,,,,,,,,,,,,,,,,,,,negc_negs,30,-15,15,-15,"[5, 2, 1, 0.5]",lin,1,1,8,0,4,21,down,2,-7,-7,-30,1549.2706173749975,1549.2788325420006,1549.7658394579994,1549.7658394579994,1549.8383501249991,1549.8383501249991,1549.8383501249991,1550.4612160830002,0,,,,,,,,,,,,,,,21049999,0,2025-10-17_10h44.28.208,tilt_staircase,2024.2.4,120.34641764341205,2025-10-17 10h44.51.975870 -0400,
,,,1,0,1,,,,,,,,,,,,,,,,,,1,0,1,0,1550.4684776249997,,,,,,,,,,,,,,,,,,,,,,,,,,,,,,,,,,,,,,,,,,,,,,,,,,,,,,,,,,negc_noss,30,-15,15,-15,"[5, 2, 1, 0.5]",lin,1,1,8,4,4,22,up,5,0,0,,1550.462344042,1550.4684776249997,1550.9591175829992,1550.9591175829992,1551.0396804579977,1551.0332447919973,1551.0332447919973,1551.941174042,1,,,,,,,,,,,,,,,21049999,0,2025-10-17_10h44.28.208,tilt_staircase,2024.2.4,120.34641764341205,2025-10-17 10h44.51.975870 -0400,
,,,1,0,1,,,,,,,,,,,,,,,,,,1,0,1,0,1551.9662118749984,,,,,,,,,,,,,,,,,,,,,,,,,,,,,,,,,,,,,,,,,,,,,,,,,,,,,,,,,,posc_noss,30,15,15,-15,"[5, 2, 1, 0.5]",lin,1,1,8,5,4,23,down,5,0,0,,1551.9423035,1551.9662118749984,1552.441912541999,1552.441912541999,1552.5163791669984,1552.5163791669984,1552.5163791669984,1554.3852037079996,0,,,,,,,,,,,,,,,21049999,0,2025-10-17_10h44.28.208,tilt_staircase,2024.2.4,120.34641764341205,2025-10-17 10h44.51.975870 -0400,
,,,1,0,1,,,,,,,,,,,,,,,,,,1,0,1,0,1554.3944072919985,,,,,,,,,,,,,,,,,,,,,,,,,,,,,,,,,,,,,,,,,,,,,,,,,,,,,,,,,,negc_noss,30,-15,15,-15,"[5, 2, 1, 0.5]",lin,1,1,8,4,5,24,down,2,-2,-2,,1554.3863779169988,1554.3944072919985,1554.8827290419977,1554.8827290419977,1554.956086582999,1554.956086582999,1554.956086582999,1555.4239407919995,0,,,,,,,,,,,,,,,21049999,0,2025-10-17_10h44.28.208,tilt_staircase,2024.2.4,120.34641764341205,2025-10-17 10h44.51.975870 -0400,
,,,1,0,1,,,,,,,,,,,,,,,,,,1,0,1,0,1555.4331891669972,,,,,,,,,,,,,,,,,,,,,,,,,,,,,,,,,,,,,,,,,,,,,,,,,,,,,,,,,,posc_poss,30,15,15,-15,"[5, 2, 1, 0.5]",lin,1,1,8,3,5,25,up,2,2,2,30,1555.4250930829985,1555.4331891669972,1555.9258686249996,1555.9258686249996,1555.9998400829973,1555.9998400829973,1555.9998400829973,1556.492752291997,0,,,,,,,,,,,,,,,21049999,0,2025-10-17_10h44.28.208,tilt_staircase,2024.2.4,120.34641764341205,2025-10-17 10h44.51.975870 -0400,
,,,1,0,1,,,,,,,,,,,,,,,,,,1,0,1,0,1556.5023956669975,,,,,,,,,,,,,,,,,,,,,,,,,,,,,,,,,,,,,,,,,,,,,,,,,,,,,,,,,,negc_poss,30,-15,15,-15,"[5, 2, 1, 0.5]",lin,1,1,8,2,5,26,up,5,5,5,30,1556.4941186670003,1556.5023956669975,1556.9919609169992,1556.9919609169992,1557.0667473329995,1557.0667473329995,1557.0667473329995,1557.9023308329997,1,,,,,,,,,,,,,,,21049999,0,2025-10-17_10h44.28.208,tilt_staircase,2024.2.4,120.34641764341205,2025-10-17 10h44.51.975870 -0400,
,,,1,0,1,,,,,,,,,,,,,,,,,,1,0,1,0,1557.911978832999,,,,,,,,,,,,,,,,,,,,,,,,,,,,,,,,,,,,,,,,,,,,,,,,,,,,,,,,,,negc_negs,30,-15,15,-15,"[5, 2, 1, 0.5]",lin,1,1,8,0,5,27,up,1,-6,-6,-30,1557.9037261249978,1557.911978832999,1558.3995821249991,1558.3995821249991,1558.4722317499982,1558.4722317499982,1558.4722317499982,1558.9855404169975,0,,,,,,,,,,,,,,,21049999,0,2025-10-17_10h44.28.208,tilt_staircase,2024.2.4,120.34641764341205,2025-10-17 10h44.51.975870 -0400,
,,,1,0,1,,,,,,,,,,,,,,,,,,1,0,1,0,1558.9949465419995,,,,,,,,,,,,,,,,,,,,,,,,,,,,,,,,,,,,,,,,,,,,,,,,,,,,,,,,,,posc_negs,30,15,15,-15,"[5, 2, 1, 0.5]",lin,1,1,8,1,5,28,down,5,-5,-5,-30,1558.986939082999,1558.9949465419995,1559.4830133329997,1559.4830133329997,1559.5564315419979,1559.5564315419979,1559.5564315419979,1560.4353909579986,0,,,,,,,,,,,,,,,21049999,0,2025-10-17_10h44.28.208,tilt_staircase,2024.2.4,120.34641764341205,2025-10-17 10h44.51.975870 -0400,
,,,1,0,1,,,,,,,,,,,,,,,,,,1,0,1,0,1560.4448108329998,,,,,,,,,,,,,,,,,,,,,,,,,,,,,,,,,,,,,,,,,,,,,,,,,,,,,,,,,,posc_noss,30,15,15,-15,"[5, 2, 1, 0.5]",lin,1,1,8,5,5,29,up,2,2,2,,1560.436536707999,1560.4448108329998,1560.9330914579987,1560.9330914579987,1561.0072540420006,1561.0072540420006,1561.0072540420006,1561.6857473749988,1,,,,,,,,,,,,,,,21049999,0,2025-10-17_10h44.28.208,tilt_staircase,2024.2.4,120.34641764341205,2025-10-17 10h44.51.975870 -0400,
,,,1,0,1,,,,,,,,,,,,,,,,,,1,0,1,0,1561.6951194579997,,,,,,,,,,,,,,,,,,,,,,,,,,,,,,,,,,,,,,,,,,,,,,,,,,,,,,,,,,negc_negs,30,-15,15,-15,"[5, 2, 1, 0.5]",lin,1,1,8,0,6,30,up,1,-5,-5,-30,1561.6869079579992,1561.6951194579997,1562.182990792,1562.182990792,1562.2563782920006,1562.2563782920006,1562.2563782920006,1562.701858458,0,,,,,,,,,,,,,,,21049999,0,2025-10-17_10h44.28.208,tilt_staircase,2024.2.4,120.34641764341205,2025-10-17 10h44.51.975870 -0400,
,,,1,0,1,,,,,,,,,,,,,,,,,,1,0,1,0,1562.7111677079993,,,,,,,,,,,,,,,,,,,,,,,,,,,,,,,,,,,,,,,,,,,,,,,,,,,,,,,,,,posc_noss,30,15,15,-15,"[5, 2, 1, 0.5]",lin,1,1,8,5,6,31,down,1,1,1,,1562.7029881249982,1562.7111677079993,1563.2000786669996,1563.2000786669996,1563.2732602920005,1563.2732602920005,1563.2732602920005,1563.6692500829995,1,,,,,,,,,,,,,,,21049999,0,2025-10-17_10h44.28.208,tilt_staircase,2024.2.4,120.34641764341205,2025-10-17 10h44.51.975870 -0400,
,,,1,0,1,,,,,,,,,,,,,,,,,,1,0,1,0,1563.6781669169977,,,,,,,,,,,,,,,,,,,,,,,,,,,,,,,,,,,,,,,,,,,,,,,,,,,,,,,,,,posc_negs,30,15,15,-15,"[5, 2, 1, 0.5]",lin,1,1,8,1,6,32,up,2,-3,-3,-30,1563.670524792,1563.6781669169977,1564.1665768329985,1564.1665768329985,1564.2402448329995,1564.2402448329995,1564.2402448329995,1564.7423782919977,1,,,,,,,,,,,,,,,21049999,0,2025-10-17_10h44.28.208,tilt_staircase,2024.2.4,120.34641764341205,2025-10-17 10h44.51.975870 -0400,
,,,1,0,1,,,,,,,,,,,,,,,,,,1,0,1,0,1564.7520082499977,,,,,,,,,,,,,,,,,,,,,,,,,,,,,,,,,,,,,,,,,,,,,,,,,,,,,,,,,,negc_noss,30,-15,15,-15,"[5, 2, 1, 0.5]",lin,1,1,8,4,6,33,up,1,-1,-1,,1564.74377225,1564.7520082499977,1565.242032332997,1565.242032332997,1565.3166408329998,1565.3166408329998,1565.3166408329998,1566.7025032499987,0,,,,,,,,,,,,,,,21049999,0,2025-10-17_10h44.28.208,tilt_staircase,2024.2.4,120.34641764341205,2025-10-17 10h44.51.975870 -0400,
,,,1,0,1,,,,,,,,,,,,,,,,,,1,0,1,0,1566.711593666998,,,,,,,,,,,,,,,,,,,,,,,,,,,,,,,,,,,,,,,,,,,,,,,,,,,,,,,,,,negc_poss,30,-15,15,-15,"[5, 2, 1, 0.5]",lin,1,1,8,2,6,34,down,2,3,3,30,1566.7036402919985,1566.711593666998,1567.199954249998,1567.199954249998,1567.2734533330004,1567.2734533330004,1567.2734533330004,1568.9855270419976,0,,,,,,,,,,,,,,,21049999,0,2025-10-17_10h44.28.208,tilt_staircase,2024.2.4,120.34641764341205,2025-10-17 10h44.51.975870 -0400,
,,,1,0,1,,,,,,,,,,,,,,,,,,1,0,1,0,1568.9947322499975,,,,,,,,,,,,,,,,,,,,,,,,,,,,,,,,,,,,,,,,,,,,,,,,,,,,,,,,,,posc_poss,30,15,15,-15,"[5, 2, 1, 0.5]",lin,1,1,8,3,6,35,up,2,4,4,30,1568.9866524999998,1568.9947322499975,1569.4832364579997,1569.4832364579997,1569.5570903329972,1569.5570903329972,1569.5570903329972,1571.5869518750005,1,,,,,,,,,,,,,,,21049999,0,2025-10-17_10h44.28.208,tilt_staircase,2024.2.4,120.34641764341205,2025-10-17 10h44.51.975870 -0400,
,,,1,0,1,,,,,,,,,,,,,,,,,,1,0,1,0,1571.5959924999988,,,,,,,,,,,,,,,,,,,,,,,,,,,,,,,,,,,,,,,,,,,,,,,,,,,,,,,,,,negc_noss,30,-15,15,-15,"[5, 2, 1, 0.5]",lin,1,1,8,4,7,36,up,1,0,0,,1571.5881160829995,1571.5959924999988,1572.0835181250004,1572.0835181250004,1572.1565852919994,1572.1565852919994,1572.1565852919994,1572.6862302079971,0,,,,,,,,,,,,,,,21049999,0,2025-10-17_10h44.28.208,tilt_staircase,2024.2.4,120.34641764341205,2025-10-17 10h44.51.975870 -0400,
,,,1,0,1,,,,,,,,,,,,,,,,,,1,0,1,0,1572.695388917,,,,,,,,,,,,,,,,,,,,,,,,,,,,,,,,,,,,,,,,,,,,,,,,,,,,,,,,,,posc_poss,30,15,15,-15,"[5, 2, 1, 0.5]",lin,1,1,8,3,7,37,down,1,3,3,30,1572.6874251249974,1572.695388917,1573.183505916997,1573.183505916997,1573.2578257079986,1573.2578257079986,1573.2578257079986,1573.8694983749992,0,,,,,,,,,,,,,,,21049999,0,2025-10-17_10h44.28.208,tilt_staircase,2024.2.4,120.34641764341205,2025-10-17 10h44.51.975870 -0400,
,,,1,0,1,,,,,,,,,,,,,,,,,,1,0,1,0,1573.8787342920004,,,,,,,,,,,,,,,,,,,,,,,,,,,,,,,,,,,,,,,,,,,,,,,,,,,,,,,,,,posc_noss,30,15,15,-15,"[5, 2, 1, 0.5]",lin,1,1,8,5,7,38,down,1,0,0,,1573.8706753749975,1573.8787342920004,1574.3668539169994,1574.3668539169994,1574.4398754169997,1574.4398754169997,1574.4398754169997,1575.352559791998,1,,,,,,,,,,,,,,,21049999,0,2025-10-17_10h44.28.208,tilt_staircase,2024.2.4,120.34641764341205,2025-10-17 10h44.51.975870 -0400,
,,,1,0,1,,,,,,,,,,,,,,,,,,1,0,1,0,1575.3620202499987,,,,,,,,,,,,,,,,,,,,,,,,,,,,,,,,,,,,,,,,,,,,,,,,,,,,,,,,,,negc_poss,30,-15,15,-15,"[5, 2, 1, 0.5]",lin,1,1,8,2,7,39,up,1,4,4,30,1575.353712958,1575.3620202499987,1575.8503118749977,1575.8503118749977,1575.9240295829986,1575.9240295829986,1575.9240295829986,1578.0199732919973,0,,,,,,,,,,,,,,,21049999,0,2025-10-17_10h44.28.208,tilt_staircase,2024.2.4,120.34641764341205,2025-10-17 10h44.51.975870 -0400,
