center,surround,correct,thisN,thisTrialN,thisRepN,key_resp_3.keys,key_resp_3.corr,key_resp_3.rt,key_resp_3.duration,opacity,key_resp_4.keys,key_resp_4.corr,key_resp_4.rt,key_resp_4.duration,type,surr_type,surr_opacity,resp.keys,resp.rt,resp.duration,key_resp_10.keys,key_resp_10.rt,key_resp_10.duration,practice_no_time.thisRepN,practice_no_time.thisTrialN,practice_no_time.thisN,practice_no_time.thisIndex,practice_timed.thisRepN,practice_timed.thisTrialN,practice_timed.thisN,practice_timed.thisIndex,trials.thisRepN,trials.thisTrialN,trials.thisN,trials.thisIndex,thisRow.t,notes,instr.started,text_5.started,key_resp_2.started,instr.stopped,key_resp_2.keys,key_resp_2.rt,key_resp_2.duration,instr2.started,text_6.started,key_resp_6.started,instr2.stopped,key_resp_6.keys,key_resp_6.rt,key_resp_6.duration,practice_trial.started,key_resp_3.started,surround_practice.started,center_practice.started,practice_trial.stopped,practice_no_time.key_resp_3.keys,practice_no_time.key_resp_3.corr,practice_no_time.key_resp_3.rt,practice_no_time.key_resp_3.duration,practice_feedback.started,text_7.started,practice_feedback.stopped,text_7.stopped,instr3.started,text_8.started,key_resp_5.started,instr3.stopped,key_resp_5.keys,key_resp_5.rt,key_resp_5.duration,practice_trial_timed.started,key_resp_4.started,surround_practice_2.started,center_practice_2.started,surround_practice_2.stopped,center_practice_2.stopped,text_12.started,practice_trial_timed.stopped,practice_timed.key_resp_4.keys,practice_timed.key_resp_4.corr,practice_timed.key_resp_4.rt,practice_timed.key_resp_4.duration,start_instr.started,text_13.started,key_resp_8.started,start_instr.stopped,key_resp_8.keys,key_resp_8.rt,key_resp_8.duration,trial.started,resp.started,surround_grating.started,center_grating.started,surround_grating.stopped,center_grating.stopped,text_4.started,trial.stopped,trials.resp.keys,trials.resp.rt,trials.resp.duration,break_2.started,break_2.stopped,trials.key_resp_10.keys,text_2.started,key_resp_10.started,trials.key_resp_10.rt,trials.key_resp_10.duration,end.started,text_14.started,key_resp.started,end.stopped,key_resp.keys,key_resp.rt,key_resp.duration,sub,ses,date,expName,psychopyVersion,frameRate,expStart,
,,,,,,,,,,,,,,,,,,,,,,,,,,,,,,,,,,,,,,0.00418645900208503,0.016807749983854592,0.016807749983854592,52.659998874994926,space,52.64122479094658,None,,,,,,,,,,,,,,,,,,,,,,,,,,,,,,,,,,,,,,,,,,,,,,,,,,,,,,,,,,,,,,,,,,,,,,,,eli,0,2025-09-08_18h58.16.085,tilt_mocs,2024.2.4,None,2025-09-08 18h58.24.525929 -0400,
,,,,,,,,,,,,,,,,,,,,,,,,,,,,,,,,,,,,,,,,,,,,,52.66011733398773,52.67447800002992,52.67447800002992,57.33996349998051,space,4.65929087495897,None,,,,,,,,,,,,,,,,,,,,,,,,,,,,,,,,,,,,,,,,,,,,,,,,,,,,,,,,,,,,,,,,,eli,0,2025-09-08_18h58.16.085,tilt_mocs,2024.2.4,None,2025-09-08 18h58.24.525929 -0400,
30,0,right,0,0,0,right,1,0.9617513330304064,None,,,,,,,,,,,,,,,0,0,0,0,,,,,,,,,57.391397542029154,,,,,,,,,,,,,,,,57.384685625031125,57.391397542029154,57.89769775001332,57.89769775001332,58.35710854199715,right,1,0.9617513330304064,None,58.36191995901754,58.46587337501114,59.85867841698928,,,,,,,,,,,,,,,,,,,,,,,,,,,,,,,,,,,,,,,,,,,,,,,,,,,,,eli,0,2025-09-08_18h58.16.085,tilt_mocs,2024.2.4,None,2025-09-08 18h58.24.525929 -0400,
-30,0,left,1,1,0,left,1,0.9254233749816194,None,,,,,,,,,,,,,,,0,1,1,1,,,,,,,,,59.87121129198931,,,,,,,,,,,,,,,,59.86003945901757,59.87121129198931,60.354801709007006,60.354801709007006,60.806491416995414,left,1,0.9254233749816194,None,60.80662387498887,60.81514162500389,62.30520320899086,62.310661750030704,,,,,,,,,,,,,,,,,,,,,,,,,,,,,,,,,,,,,,,,,,,,,,,,,,,,eli,0,2025-09-08_18h58.16.085,tilt_mocs,2024.2.4,None,2025-09-08 18h58.24.525929 -0400,
30,60,right,2,2,0,right,1,1.0260901670553721,None,,,,,,,,,,,,,,,0,2,2,2,,,,,,,,,62.310661750030704,,,,,,,,,,,,,,,,62.30715254199458,62.310661750030704,62.80442545900587,62.80442545900587,63.339946417021565,right,1,1.0260901670553721,None,63.340046208992135,63.346646999998484,64.83902133401716,64.84499891701853,,,,,,,,,,,,,,,,,,,,,,,,,,,,,,,,,,,,,,,,,,,,,,,,,,,,eli,0,2025-09-08_18h58.16.085,tilt_mocs,2024.2.4,None,2025-09-08 18h58.24.525929 -0400,
-30,-60,left,3,3,0,left,1,0.9077172499964945,None,,,,,,,,,,,,,,,0,3,3,3,,,,,,,,,64.84499891701853,,,,,,,,,,,,,,,,64.8409796670312,64.84499891701853,65.33780512498925,65.33780512498925,65.75725008401787,left,1,0.9077172499964945,None,65.75737258401932,65.76395762502216,67.25544787500985,67.26148541702423,,,,,,,,,,,,,,,,,,,,,,,,,,,,,,,,,,,,,,,,,,,,,,,,,,,,eli,0,2025-09-08_18h58.16.085,tilt_mocs,2024.2.4,None,2025-09-08 18h58.24.525929 -0400,
,,,,,,,,,,,,,,,,,,,,,,,,,,,,,,,,,,,,,,,,,,,,,,,,,,,,,,,,,,,,,,,,,67.25559554202482,67.26148541702423,67.26148541702423,77.03891704202397,space,9.771500125003513,None,,,,,,,,,,,,,,,,,,,,,,,,,,,,,,,,,,,,,,,,,,,,,eli,0,2025-09-08_18h58.16.085,tilt_mocs,2024.2.4,None,2025-09-08 18h58.24.525929 -0400,
-30,-60,left,0,0,0,,,,,100,right,0,0.8943238750216551,None,,,,,,,,,,,,,,0,0,0,0,,,,,77.06465366698103,,,,,,,,,,,,,,,,,,,,,,,,,77.9717570419889,77.97554487502202,79.4705481249839,79.47343775001355,,,,,,,,77.05818116699811,77.06465366698103,77.53703970898641,77.53703970898641,77.60846637497889,77.60846637497889,77.60846637497889,77.97167950001312,right,0,0.8943238750216551,None,,,,,,,,,,,,,,,,,,,,,,,,,,,,,,,,,eli,0,2025-09-08_18h58.16.085,tilt_mocs,2024.2.4,None,2025-09-08 18h58.24.525929 -0400,
-30,0,left,1,1,0,,,,,100,left,1,0.8786566249909811,None,,,,,,,,,,,,,,0,1,1,1,,,,,79.47343775001355,,,,,,,,,,,,,,,,,,,,,,,,,80.3561315840343,80.36256641702494,81.8556319589843,81.86087658401811,,,,,,,,79.47135100001469,79.47343775001355,79.95863358402858,79.95863358402858,80.02339408401167,80.02339408401167,80.04105108400108,80.35602624999592,left,1,0.8786566249909811,None,,,,,,,,,,,,,,,,,,,,,,,,,,,,,,,,,eli,0,2025-09-08_18h58.16.085,tilt_mocs,2024.2.4,None,2025-09-08 18h58.24.525929 -0400,
30,60,right,2,2,0,,,,,100,right,1,0.8295492079923861,None,,,,,,,,,,,,,,0,2,2,2,,,,,81.86087658401811,,,,,,,,,,,,,,,,,,,,,,,,,82.69305599998916,82.70459570898674,84.18832066701725,84.1928122920217,,,,,,,,81.85704266699031,81.86087658401811,82.35463370900834,82.35463370900834,82.4234198750346,82.4234198750346,82.4234198750346,82.69293866702355,right,1,0.8295492079923861,None,,,,,,,,,,,,,,,,,,,,,,,,,,,,,,,,,eli,0,2025-09-08_18h58.16.085,tilt_mocs,2024.2.4,None,2025-09-08 18h58.24.525929 -0400,
30,0,right,3,3,0,,,,,100,right,1,0.9444416670012288,None,,,,,,,,,,,,,,0,3,3,3,,,,,84.1928122920217,,,,,,,,,,,,,,,,,,,,,,,,,85.13994091702625,85.15210950002074,86.6375412500347,86.64130399998976,,,,,,,,84.18957079201937,84.1928122920217,84.6934778339928,84.6934778339928,84.77106854203157,84.77106854203157,84.77106854203157,85.13982587499777,right,1,0.9444416670012288,None,,,,,,,,,,,,,,,,,,,,,,,,,,,,,,,,,eli,0,2025-09-08_18h58.16.085,tilt_mocs,2024.2.4,None,2025-09-08 18h58.24.525929 -0400,
-30,69,left,4,4,0,,,,,0,left,1,0.8159676659852266,None,,,,,,,,,,,,,,0,4,4,4,,,,,86.64130399998976,,,,,,,,,,,,,,,,,,,,,,,,,87.45875333400909,87.47060704202158,88.95416629198007,88.95755054202164,,,,,,,,86.63874645897886,86.64130399998976,87.13783483399311,87.13783483399311,87.20740691700485,87.20740691700485,87.20740691700485,87.45867883402389,left,1,0.8159676659852266,None,,,,,,,,,,,,,,,,,,,,,,,,,,,,,,,,,eli,0,2025-09-08_18h58.16.085,tilt_mocs,2024.2.4,None,2025-09-08 18h58.24.525929 -0400,
30,69,right,5,5,0,,,,,0,right,1,0.779200834047515,None,,,,,,,,,,,,,,0,5,5,5,,,,,88.95755054202164,,,,,,,,,,,,,,,,,,,,,,,,,89.73973883403232,89.74586416699458,91.23832904198207,91.24341416702373,,,,,,,,88.95517566701164,88.95755054202164,89.45746429200517,89.45746429200517,89.52372862503398,89.52372862503398,89.53747433400713,89.73963162500877,right,1,0.779200834047515,None,,,,,,,,,,,,,,,,,,,,,,,,,,,,,,,,,eli,0,2025-09-08_18h58.16.085,tilt_mocs,2024.2.4,None,2025-09-08 18h58.24.525929 -0400,
,,,,,,,,,,,,,,,,,,,,,,,,,,,,,,,,,,,,,,,,,,,,,,,,,,,,,,,,,,,,,,,,,,,,,,,,,,,,,,,,,,,,91.23846150003374,91.24341416702373,91.24341416702373,92.7724103750079,space,1.5159340410027653,None,,,,,,,,,,,,,,,,,,,,,,,,,,eli,0,2025-09-08_18h58.16.085,tilt_mocs,2024.2.4,None,2025-09-08 18h58.24.525929 -0400,
4.944444444444445,15.0,,0,0,0,,,,,,,,,,p3,poss,100,right,0.8896559579879977,None,None,,,,,,,,,,,0,0,0,241,92.82258804200683,,,,,,,,,,,,,,,,,,,,,,,,,,,,,,,,,,,,,,,,,,,,,,,,,,,,,,,92.82029408402741,92.82258804200683,93.27116841700627,93.27116841700627,93.34245808399282,93.34245808399282,93.34245808399282,93.7232155840029,right,0.8896559579879977,None,93.72331058402779,93.7233519590227,None,,,,,,,,,,,,eli,0,2025-09-08_18h58.16.085,tilt_mocs,2024.2.4,None,2025-09-08 18h58.24.525929 -0400,
1.6666666666666667,0.0,,1,1,0,,,,,,,,,,p1,noss,0,left,0.8768017080146819,None,None,,,,,,,,,,,0,1,1,650,93.73101562500233,,,,,,,,,,,,,,,,,,,,,,,,,,,,,,,,,,,,,,,,,,,,,,,,,,,,,,,93.72502233402338,93.73101562500233,94.22116575000109,94.22116575000109,94.29169795900816,94.29169795900816,94.29169795900816,94.6098987919977,left,0.8768017080146819,None,94.61001408402808,94.61005249997834,None,,,,,,,,,,,,eli,0,2025-09-08_18h58.16.085,tilt_mocs,2024.2.4,None,2025-09-08 18h58.24.525929 -0400,
-5.861111111111111,-15.0,,2,2,0,,,,,,,,,,m1,negs,100,right,0.8953670000191778,None,None,,,,,,,,,,,0,2,2,398,94.62086862500291,,,,,,,,,,,,,,,,,,,,,,,,,,,,,,,,,,,,,,,,,,,,,,,,,,,,,,,94.6118282090174,94.62086862500291,95.10942791699199,95.10942791699199,95.18790054199053,95.18790054199053,95.18790054199053,95.5183897090028,right,0.8953670000191778,None,95.51844516699202,95.51846545899753,None,,,,,,,,,,,,eli,0,2025-09-08_18h58.16.085,tilt_mocs,2024.2.4,None,2025-09-08 18h58.24.525929 -0400,
4.444444444444445,15.0,,3,3,0,,,,,,,,,,p2,poss,100,left,0.8926242080051452,None,space,7.262718875019345,None,,,,,,,,,0,3,3,224,95.52317766699707,,,,,,,,,,,,,,,,,,,,,,,,,,,,,,,,,,,,,,,,,,,,,,,,,,,,,,,95.51942412502831,95.52317766699707,96.0080797499977,96.0080797499977,96.07321633398533,96.07321633398533,96.09117645898368,96.42235904198606,left,0.8926242080051452,None,96.42242058401462,103.69468937499914,space,96.42730683402624,96.42730683402624,7.262718875019345,None,,,,,,,,eli,0,2025-09-08_18h58.16.085,tilt_mocs,2024.2.4,None,2025-09-08 18h58.24.525929 -0400,
0.1666666666666667,0.0,,4,4,0,,,,,,,,,,m2,noss,0,left,0.9692619169945829,None,None,,,,,,,,,,,0,4,4,589,103.7039102090057,,,,,,,,,,,,,,,,,,,,,,,,,,,,,,,,,,,,,,,,,,,,,,,,,,,,,,,103.69664779200684,103.7039102090057,104.19337420898955,104.19337420898955,104.27141554199625,104.27141554199625,104.27141554199625,104.67778012499912,left,0.9692619169945829,None,104.67788187501719,104.67792004201328,None,,,,,,,,,,,,eli,0,2025-09-08_18h58.16.085,tilt_mocs,2024.2.4,None,2025-09-08 18h58.24.525929 -0400,
3.444444444444444,15.0,,5,5,0,,,,,,,,,,PSE,poss,100,right,0.8564762499881908,None,None,,,,,,,,,,,0,5,5,131,104.68685020902194,,,,,,,,,,,,,,,,,,,,,,,,,,,,,,,,,,,,,,,,,,,,,,,,,,,,,,,104.67973770899698,104.68685020902194,105.17780708399368,105.17780708399368,105.25467833399307,105.25467833399307,105.25467833399307,105.55448712501675,right,0.8564762499881908,None,105.55456358398078,105.55458620900754,None,,,,,,,,,,,,eli,0,2025-09-08_18h58.16.085,tilt_mocs,2024.2.4,None,2025-09-08 18h58.24.525929 -0400,
2.444444444444444,15.0,,6,6,0,,,,,,,,,,m2,poss,100,right,0.920497874962166,None,None,,,,,,,,,,,0,6,6,79,105.55937020899728,,,,,,,,,,,,,,,,,,,,,,,,,,,,,,,,,,,,,,,,,,,,,,,,,,,,,,,105.55555749998894,105.55937020899728,106.04237054201076,106.04237054201076,106.12125500000548,106.12125500000548,106.12582795898197,106.48845087498194,right,0.920497874962166,None,106.48852349998197,106.48855033400469,None,,,,,,,,,,,,eli,0,2025-09-08_18h58.16.085,tilt_mocs,2024.2.4,None,2025-09-08 18h58.24.525929 -0400,
2.444444444444444,15.0,,7,7,0,,,,,,,,,,m2,poss,100,left,1.0095289589953609,None,None,,,,,,,,,,,0,7,7,71,106.4934404999949,,,,,,,,,,,,,,,,,,,,,,,,,,,,,,,,,,,,,,,,,,,,,,,,,,,,,,,106.48967145901406,106.4934404999949,106.98712654202245,106.98712654202245,107.05740820901701,107.05740820901701,107.05740820901701,107.50510195898823,left,1.0095289589953609,None,107.50516687502386,107.50519245897885,None,,,,,,,,,,,,eli,0,2025-09-08_18h58.16.085,tilt_mocs,2024.2.4,None,2025-09-08 18h58.24.525929 -0400,
-4.361111111111111,-15.0,,8,8,0,,,,,,,,,,p2,negs,100,right,0.9855847080470994,None,None,,,,,,,,,,,0,8,8,480,107.51030895899748,,,,,,,,,,,,,,,,,,,,,,,,,,,,,,,,,,,,,,,,,,,,,,,,,,,,,,,107.50627633399563,107.51030895899748,107.99239400000079,107.99239400000079,108.0711797089898,108.0711797089898,108.07400533399777,108.50551854202058,right,0.9855847080470994,None,108.50559058401268,108.50561712501803,None,,,,,,,,,,,,eli,0,2025-09-08_18h58.16.085,tilt_mocs,2024.2.4,None,2025-09-08 18h58.24.525929 -0400,
3.444444444444444,15.0,,9,9,0,,,,,,,,,,PSE,poss,100,left,0.8966133749927394,None,None,,,,,,,,,,,0,9,9,137,108.51130058401031,,,,,,,,,,,,,,,,,,,,,,,,,,,,,,,,,,,,,,,,,,,,,,,,,,,,,,,108.5068381250021,108.51130058401031,109.00375508400612,109.00375508400612,109.07417945901398,109.07417945901398,109.07417945901398,109.40937925002072,left,0.8966133749927394,None,109.40945041697705,109.40948295901762,None,,,,,,,,,,,,eli,0,2025-09-08_18h58.16.085,tilt_mocs,2024.2.4,None,2025-09-08 18h58.24.525929 -0400,
-3.861111111111111,-15.0,,10,10,0,,,,,,,,,,p3,negs,100,right,0.9230800000368617,None,None,,,,,,,,,,,0,10,10,547,109.42010483401828,,,,,,,,,,,,,,,,,,,,,,,,,,,,,,,,,,,,,,,,,,,,,,,,,,,,,,,109.41078154201386,109.42010483401828,109.90416929201456,109.90416929201456,109.97343887499301,109.97343887499301,109.98764850001317,110.35621254198486,right,0.9230800000368617,None,110.35630691703409,110.35634337499505,None,,,,,,,,,,,,eli,0,2025-09-08_18h58.16.085,tilt_mocs,2024.2.4,None,2025-09-08 18h58.24.525929 -0400,
0.1666666666666667,0.0,,11,11,0,,,,,,,,,,m2,noss,0,left,0.8520995839498937,None,None,,,,,,,,,,,0,11,11,595,110.36420512502082,,,,,,,,,,,,,,,,,,,,,,,,,,,,,,,,,,,,,,,,,,,,,,,,,,,,,,,110.35806020902237,110.36420512502082,110.85435554198921,110.85435554198921,110.9226865840028,110.9226865840028,110.9226865840028,111.22380024997983,left,0.8520995839498937,None,111.22398524999153,111.22403391700936,None,,,,,,,,,,,,eli,0,2025-09-08_18h58.16.085,tilt_mocs,2024.2.4,None,2025-09-08 18h58.24.525929 -0400,
3.444444444444444,15.0,,12,12,0,,,,,,,,,,PSE,poss,100,left,0.9582910419558175,None,None,,,,,,,,,,,0,12,12,125,111.23232662503142,,,,,,,,,,,,,,,,,,,,,,,,,,,,,,,,,,,,,,,,,,,,,,,,,,,,,,,111.22606675000861,111.23232662503142,111.72049300000072,111.72049300000072,111.79195704200538,111.79195704200538,111.79195704200538,112.19493195903488,left,0.9582910419558175,None,112.19504383398453,112.19508183398284,None,,,,,,,,,,,,eli,0,2025-09-08_18h58.16.085,tilt_mocs,2024.2.4,None,2025-09-08 18h58.24.525929 -0400,
2.166666666666667,0.0,,13,13,0,,,,,,,,,,p2,noss,0,right,0.9486614579800516,None,None,,,,,,,,,,,0,13,13,660,112.20348137500696,,,,,,,,,,,,,,,,,,,,,,,,,,,,,,,,,,,,,,,,,,,,,,,,,,,,,,,112.19687054201495,112.20348137500696,112.69234766700538,112.69234766700538,112.77109674998792,112.77109674998792,112.77109674998792,113.15694862499367,right,0.9486614579800516,None,113.15705350000644,113.15709350001998,None,,,,,,,,,,,,eli,0,2025-09-08_18h58.16.085,tilt_mocs,2024.2.4,None,2025-09-08 18h58.24.525929 -0400,
-6.861111111111111,-15.0,,14,14,0,,,,,,,,,,m3,negs,100,left,0.8517010000068694,None,None,,,,,,,,,,,0,14,14,313,113.16491733398288,,,,,,,,,,,,,,,,,,,,,,,,,,,,,,,,,,,,,,,,,,,,,,,,,,,,,,,113.15891400002874,113.16491733398288,113.65441554202698,113.65441554202698,113.72485154197784,113.72485154197784,113.72485154197784,114.02252125000814,left,0.8517010000068694,None,114.02260575001128,114.0226365000126,None,,,,,,,,,,,,eli,0,2025-09-08_18h58.16.085,tilt_mocs,2024.2.4,None,2025-09-08 18h58.24.525929 -0400,
0.6666666666666667,0.0,,15,15,0,,,,,,,,,,m1,noss,0,right,0.9378555409493856,None,None,,,,,,,,,,,0,15,15,608,114.02941891702358,,,,,,,,,,,,,,,,,,,,,,,,,,,,,,,,,,,,,,,,,,,,,,,,,,,,,,,114.0240689170314,114.02941891702358,114.52019395900425,114.52019395900425,114.59037058398826,114.59037058398826,114.59037058398826,114.97124895901652,right,0.9378555409493856,None,114.97131116699893,114.97133450000547,None,,,,,,,,,,,,eli,0,2025-09-08_18h58.16.085,tilt_mocs,2024.2.4,None,2025-09-08 18h58.24.525929 -0400,
1.944444444444444,15.0,,16,16,0,,,,,,,,,,m3,poss,100,left,0.9193340830388479,None,None,,,,,,,,,,,0,16,16,12,114.97613554203417,,,,,,,,,,,,,,,,,,,,,,,,,,,,,,,,,,,,,,,,,,,,,,,,,,,,,,,114.97237725002924,114.97613554203417,115.47004583402304,115.47004583402304,115.54011291702045,115.54011291702045,115.54011291702045,115.90577449998818,left,0.9193340830388479,None,115.9058600839926,115.90589087503031,None,,,,,,,,,,,,eli,0,2025-09-08_18h58.16.085,tilt_mocs,2024.2.4,None,2025-09-08 18h58.24.525929 -0400,
-4.861111111111111,-15.0,,17,17,0,,,,,,,,,,p1,negs,100,right,1.1270016669877805,None,None,,,,,,,,,,,0,17,17,444,115.91219175001606,,,,,,,,,,,,,,,,,,,,,,,,,,,,,,,,,,,,,,,,,,,,,,,,,,,,,,,115.90736025001388,115.91219175001606,116.4043819999788,116.4043819999788,116.47361924999859,116.47361924999859,116.47361924999859,117.04208937502699,right,1.1270016669877805,None,117.04217058402719,117.04220129200257,None,,,,,,,,,,,,eli,0,2025-09-08_18h58.16.085,tilt_mocs,2024.2.4,None,2025-09-08 18h58.24.525929 -0400,
2.444444444444444,15.0,,18,18,0,,,,,,,,,,m2,poss,100,right,0.8889159170212224,None,None,,,,,,,,,,,0,18,18,69,117.0543237089878,,,,,,,,,,,,,,,,,,,,,,,,,,,,,,,,,,,,,,,,,,,,,,,,,,,,,,,117.0435835000244,117.0543237089878,117.54226804198697,117.54226804198697,117.62094508402515,117.62094508402515,117.62094508402515,117.95513045898406,right,0.8889159170212224,None,117.95521270902827,117.95524400001159,None,,,,,,,,,,,,eli,0,2025-09-08_18h58.16.085,tilt_mocs,2024.2.4,None,2025-09-08 18h58.24.525929 -0400,
-6.361111111111111,-15.0,,19,19,0,,,,,,,,,,m2,negs,100,right,0.8869210830307566,None,None,,,,,,,,,,,0,19,19,325,117.96095941698877,,,,,,,,,,,,,,,,,,,,,,,,,,,,,,,,,,,,,,,,,,,,,,,,,,,,,,,117.95661191700492,117.96095941698877,118.44181970902719,118.44181970902719,118.50697745900834,118.50697745900834,118.52418937499169,118.85636529198382,right,0.8869210830307566,None,118.85646733402973,118.85650529200211,None,,,,,,,,,,,,eli,0,2025-09-08_18h58.16.085,tilt_mocs,2024.2.4,None,2025-09-08 18h58.24.525929 -0400,
-3.861111111111111,-15.0,,20,20,0,,,,,,,,,,p3,negs,100,left,0.8261081660166383,None,None,,,,,,,,,,,0,20,20,535,118.86429358401801,,,,,,,,,,,,,,,,,,,,,,,,,,,,,,,,,,,,,,,,,,,,,,,,,,,,,,,118.8583035839838,118.86429358401801,119.35465937497793,119.35465937497793,119.42357616702793,119.42357616702793,119.42357616702793,119.69436483399477,left,0.8261081660166383,None,119.69446299999254,119.69450074998895,None,,,,,,,,,,,,eli,0,2025-09-08_18h58.16.085,tilt_mocs,2024.2.4,None,2025-09-08 18h58.24.525929 -0400,
1.944444444444444,15.0,,21,21,0,,,,,,,,,,m3,poss,100,left,0.9527458330267109,None,None,,,,,,,,,,,0,21,21,6,119.70348850003211,,,,,,,,,,,,,,,,,,,,,,,,,,,,,,,,,,,,,,,,,,,,,,,,,,,,,,,119.69629937503487,119.70348850003211,120.19372783403378,120.19372783403378,120.27109183400171,120.27109183400171,120.27109183400171,120.66371583403088,left,0.9527458330267109,None,120.66375695902389,120.66377012501471,None,,,,,,,,,,,,eli,0,2025-09-08_18h58.16.085,tilt_mocs,2024.2.4,None,2025-09-08 18h58.24.525929 -0400,
3.944444444444444,15.0,,22,22,0,,,,,,,,,,p1,poss,100,left,1.003202042018529,None,None,,,,,,,,,,,0,22,22,179,120.67000824998831,,,,,,,,,,,,,,,,,,,,,,,,,,,,,,,,,,,,,,,,,,,,,,,,,,,,,,,120.66441862500506,120.67000824998831,121.1611461249995,121.1611461249995,121.23795733402949,121.23795733402949,121.24323279201053,121.67601829202613,left,1.003202042018529,None,121.67609495902434,121.6761258339975,None,,,,,,,,,,,,eli,0,2025-09-08_18h58.16.085,tilt_mocs,2024.2.4,None,2025-09-08 18h58.24.525929 -0400,
-6.861111111111111,-15.0,,23,23,0,,,,,,,,,,m3,negs,100,left,0.952535541029647,None,None,,,,,,,,,,,0,23,23,281,121.6876496670302,,,,,,,,,,,,,,,,,,,,,,,,,,,,,,,,,,,,,,,,,,,,,,,,,,,,,,,121.67756500001997,121.6876496670302,122.1773452500347,122.1773452500347,122.25447174999863,122.25447174999863,122.25447174999863,122.6422880840255,left,0.952535541029647,None,122.64238799997838,122.64242487499723,None,,,,,,,,,,,,eli,0,2025-09-08_18h58.16.085,tilt_mocs,2024.2.4,None,2025-09-08 18h58.24.525929 -0400,
1.1666666666666667,0.0,,24,24,0,,,,,,,,,,PSE,noss,0,right,0.9364408749970607,None,None,,,,,,,,,,,0,24,24,624,122.65442083403468,,,,,,,,,,,,,,,,,,,,,,,,,,,,,,,,,,,,,,,,,,,,,,,,,,,,,,,122.64400495903101,122.65442083403468,123.13760166702559,123.13760166702559,123.20861512498232,123.20861512498232,123.22104616701836,123.5935569590074,right,0.9364408749970607,None,123.59367025003303,123.59371024998836,None,,,,,,,,,,,,eli,0,2025-09-08_18h58.16.085,tilt_mocs,2024.2.4,None,2025-09-08 18h58.24.525929 -0400,
-6.861111111111111,-15.0,,25,25,0,,,,,,,,,,m3,negs,100,left,0.9476974999997765,None,None,,,,,,,,,,,0,25,25,310,123.60362754203379,,,,,,,,,,,,,,,,,,,,,,,,,,,,,,,,,,,,,,,,,,,,,,,,,,,,,,,123.59551408397965,123.60362754203379,124.09369104198413,124.09369104198413,124.17113274999429,124.17113274999429,124.17113274999429,124.55563037499087,left,0.9476974999997765,None,124.55570883402834,124.55573566700332,None,,,,,,,,,,,,eli,0,2025-09-08_18h58.16.085,tilt_mocs,2024.2.4,None,2025-09-08 18h58.24.525929 -0400,
2.166666666666667,0.0,,26,26,0,,,,,,,,,,p2,noss,0,right,0.9740812919917516,None,None,,,,,,,,,,,0,26,26,678,124.56180558400229,,,,,,,,,,,,,,,,,,,,,,,,,,,,,,,,,,,,,,,,,,,,,,,,,,,,,,,124.55694879201474,124.56180558400229,125.05384820903419,125.05384820903419,125.12429562502075,125.12429562502075,125.12429562502075,125.5387724590255,right,0.9740812919917516,None,125.53884479199769,125.53887145902263,None,,,,,,,,,,,,eli,0,2025-09-08_18h58.16.085,tilt_mocs,2024.2.4,None,2025-09-08 18h58.24.525929 -0400,
-3.861111111111111,-15.0,,27,27,0,,,,,,,,,,p3,negs,100,left,0.8397011670167558,None,None,,,,,,,,,,,0,27,27,538,125.54474899999332,,,,,,,,,,,,,,,,,,,,,,,,,,,,,,,,,,,,,,,,,,,,,,,,,,,,,,,125.54012091702316,125.54474899999332,126.03718300000764,126.03718300000764,126.10777045902796,126.10777045902796,126.10777045902796,126.38956595899072,left,0.8397011670167558,None,126.38966254203115,126.38970004202565,None,,,,,,,,,,,,eli,0,2025-09-08_18h58.16.085,tilt_mocs,2024.2.4,None,2025-09-08 18h58.24.525929 -0400,
3.444444444444444,15.0,,28,28,0,,,,,,,,,,PSE,poss,100,right,0.890913124952931,None,None,,,,,,,,,,,0,28,28,157,126.39735225000186,,,,,,,,,,,,,,,,,,,,,,,,,,,,,,,,,,,,,,,,,,,,,,,,,,,,,,,126.39139658398926,126.39735225000186,126.88795166701311,126.88795166701311,126.95622425002512,126.95622425002512,126.95622425002512,127.29129587498028,right,0.890913124952931,None,127.291354416986,127.29137533402536,None,,,,,,,,,,,,eli,0,2025-09-08_18h58.16.085,tilt_mocs,2024.2.4,None,2025-09-08 18h58.24.525929 -0400,
2.944444444444444,15.0,,29,29,0,,,,,,,,,,m1,poss,100,left,0.77009679103503,None,None,,,,,,,,,,,0,29,29,114,127.30341083399253,,,,,,,,,,,,,,,,,,,,,,,,,,,,,,,,,,,,,,,,,,,,,,,,,,,,,,,127.29232679202687,127.30341083399253,127.78770829201676,127.78770829201676,127.85968008398777,127.85968008398777,127.85968008398777,128.07545087498147,left,0.77009679103503,None,128.07554141699802,128.07557258399902,None,,,,,,,,,,,,eli,0,2025-09-08_18h58.16.085,tilt_mocs,2024.2.4,None,2025-09-08 18h58.24.525929 -0400,
4.944444444444445,15.0,,30,30,0,,,,,,,,,,p3,poss,100,left,0.8228611249942333,None,None,,,,,,,,,,,0,30,30,266,128.0875854170299,,,,,,,,,,,,,,,,,,,,,,,,,,,,,,,,,,,,,,,,,,,,,,,,,,,,,,,128.07706749998033,128.0875854170299,128.5755317499861,128.5755317499861,128.6543674590066,128.6543674590066,128.6543674590066,128.92186008399585,left,0.8228611249942333,None,128.9219214170007,128.9219461249886,None,,,,,,,,,,,,eli,0,2025-09-08_18h58.16.085,tilt_mocs,2024.2.4,None,2025-09-08 18h58.24.525929 -0400,
-3.861111111111111,-15.0,,31,31,0,,,,,,,,,,p3,negs,100,left,0.9692683750181459,None,None,,,,,,,,,,,0,31,31,550,128.92679129203316,,,,,,,,,,,,,,,,,,,,,,,,,,,,,,,,,,,,,,,,,,,,,,,,,,,,,,,128.92302454198943,128.92679129203316,129.40899554203497,129.40899554203497,129.48739183403086,129.48739183403086,129.4903332089889,129.9058608750347,left,0.9692683750181459,None,129.90594483399764,129.90597629197873,None,,,,,,,,,,,,eli,0,2025-09-08_18h58.16.085,tilt_mocs,2024.2.4,None,2025-09-08 18h58.24.525929 -0400,
4.444444444444445,15.0,,32,32,0,,,,,,,,,,p2,poss,100,left,1.0463851249660365,None,None,,,,,,,,,,,0,32,32,222,129.91255562502192,,,,,,,,,,,,,,,,,,,,,,,,,,,,,,,,,,,,,,,,,,,,,,,,,,,,,,,129.90740120899864,129.91255562502192,130.40410475002136,130.40410475002136,130.47309749998385,130.47309749998385,130.47309749998385,130.97139775002142,left,1.0463851249660365,None,130.97146304202033,130.9714864169946,None,,,,,,,,,,,,eli,0,2025-09-08_18h58.16.085,tilt_mocs,2024.2.4,None,2025-09-08 18h58.24.525929 -0400,
-4.361111111111111,-15.0,,33,33,0,,,,,,,,,,p2,negs,100,left,0.9905322500271723,None,None,,,,,,,,,,,0,33,33,492,130.97644170903368,,,,,,,,,,,,,,,,,,,,,,,,,,,,,,,,,,,,,,,,,,,,,,,,,,,,,,,130.97256195900263,130.97644170903368,131.4580479169963,131.4580479169963,131.52404654200654,131.52404654200654,131.54054233402712,131.9715623339871,left,0.9905322500271723,None,131.97163362498395,131.9716607920127,None,,,,,,,,,,,,eli,0,2025-09-08_18h58.16.085,tilt_mocs,2024.2.4,None,2025-09-08 18h58.24.525929 -0400,
-5.361111111111111,-15.0,,34,34,0,,,,,,,,,,PSE,negs,100,right,1.1179589580278844,None,None,,,,,,,,,,,0,34,34,431,131.97698212502291,,,,,,,,,,,,,,,,,,,,,,,,,,,,,,,,,,,,,,,,,,,,,,,,,,,,,,,131.9728885840159,131.97698212502291,132.47073483403074,132.47073483403074,132.54044524999335,132.54044524999335,132.54044524999335,133.1060716250213,right,1.1179589580278844,None,133.10616579197813,133.10620241699507,None,,,,,,,,,,,,eli,0,2025-09-08_18h58.16.085,tilt_mocs,2024.2.4,None,2025-09-08 18h58.24.525929 -0400,
3.444444444444444,15.0,,35,35,0,,,,,,,,,,PSE,poss,100,left,0.9498467919765972,None,None,,,,,,,,,,,0,35,35,156,133.11332400003448,,,,,,,,,,,,,,,,,,,,,,,,,,,,,,,,,,,,,,,,,,,,,,,,,,,,,,,133.10774891701294,133.11332400003448,133.60317716700956,133.60317716700956,133.67329424998024,133.67329424998024,133.67329424998024,134.0723224169924,left,0.9498467919765972,None,134.0724278750131,134.0724666250171,None,,,,,,,,,,,,eli,0,2025-09-08_18h58.16.085,tilt_mocs,2024.2.4,None,2025-09-08 18h58.24.525929 -0400,
4.444444444444445,15.0,,36,36,0,,,,,,,,,,p2,poss,100,left,1.079255624965299,None,None,,,,,,,,,,,0,36,36,227,134.07922370900633,,,,,,,,,,,,,,,,,,,,,,,,,,,,,,,,,,,,,,,,,,,,,,,,,,,,,,,134.07416616700357,134.07922370900633,134.57107670902042,134.57107670902042,134.6429722920293,134.6429722920293,134.6429722920293,135.16082754201489,left,1.079255624965299,None,135.16093116701813,135.16097012499813,None,,,,,,,,,,,,eli,0,2025-09-08_18h58.16.085,tilt_mocs,2024.2.4,None,2025-09-08 18h58.24.525929 -0400,
3.944444444444444,15.0,,37,37,0,,,,,,,,,,p1,poss,100,left,0.9085336250136606,None,None,,,,,,,,,,,0,37,37,199,135.17012812499888,,,,,,,,,,,,,,,,,,,,,,,,,,,,,,,,,,,,,,,,,,,,,,,,,,,,,,,135.16245308401994,135.17012812499888,135.66098179202527,135.66098179202527,135.73748424998485,135.73748424998485,135.73748424998485,136.0876356670051,left,0.9085336250136606,None,136.0876862499863,136.08770087501034,None,,,,,,,,,,,,eli,0,2025-09-08_18h58.16.085,tilt_mocs,2024.2.4,None,2025-09-08 18h58.24.525929 -0400,
4.944444444444445,15.0,,38,38,0,,,,,,,,,,p3,poss,100,left,0.8837073330068961,None,None,,,,,,,,,,,0,38,38,267,136.0913622090011,,,,,,,,,,,,,,,,,,,,,,,,,,,,,,,,,,,,,,,,,,,,,,,,,,,,,,,136.08837720903102,136.0913622090011,136.57501787500223,136.57501787500223,136.6403306670254,136.6403306670254,136.65747604198987,136.9880760840024,left,0.8837073330068961,None,136.98815054201987,136.9881770000211,None,,,,,,,,,,,,eli,0,2025-09-08_18h58.16.085,tilt_mocs,2024.2.4,None,2025-09-08 18h58.24.525929 -0400,
-3.861111111111111,-15.0,,39,39,0,,,,,,,,,,p3,negs,100,left,0.8392694999929518,None,None,,,,,,,,,,,0,39,39,543,136.99334716697922,,,,,,,,,,,,,,,,,,,,,,,,,,,,,,,,,,,,,,,,,,,,,,,,,,,,,,,136.98937558400212,136.99334716697922,137.4866166249849,137.4866166249849,137.55715029197745,137.55715029197745,137.55715029197745,137.84020995901665,left,0.8392694999929518,None,137.84030629199697,137.84034395898925,None,,,,,,,,,,,,eli,0,2025-09-08_18h58.16.085,tilt_mocs,2024.2.4,None,2025-09-08 18h58.24.525929 -0400,
-5.861111111111111,-15.0,,40,40,0,,,,,,,,,,m1,negs,100,left,0.8641292079701088,None,None,,,,,,,,,,,0,40,40,376,137.84815545898164,,,,,,,,,,,,,,,,,,,,,,,,,,,,,,,,,,,,,,,,,,,,,,,,,,,,,,,137.8421376250335,137.84815545898164,138.3380405420321,138.3380405420321,138.40842741698725,138.40842741698725,138.40842741698725,138.7233469170169,left,0.8641292079701088,None,138.72348795901053,138.72353745898,None,,,,,,,,,,,,eli,0,2025-09-08_18h58.16.085,tilt_mocs,2024.2.4,None,2025-09-08 18h58.24.525929 -0400,
-4.861111111111111,-15.0,,41,41,0,,,,,,,,,,p1,negs,100,left,0.8358250000164844,None,None,,,,,,,,,,,0,41,41,450,138.7317106249975,,,,,,,,,,,,,,,,,,,,,,,,,,,,,,,,,,,,,,,,,,,,,,,,,,,,,,,138.725481667032,138.7317106249975,139.22042504203273,139.22042504203273,139.29197720898082,139.29197720898082,139.29197720898082,139.5723132499843,left,0.8358250000164844,None,139.57239045901224,139.5724175000214,None,,,,,,,,,,,,eli,0,2025-09-08_18h58.16.085,tilt_mocs,2024.2.4,None,2025-09-08 18h58.24.525929 -0400,
3.444444444444444,15.0,,42,42,0,,,,,,,,,,PSE,poss,100,left,0.9572020409977995,None,None,,,,,,,,,,,0,42,42,148,139.5787223340012,,,,,,,,,,,,,,,,,,,,,,,,,,,,,,,,,,,,,,,,,,,,,,,,,,,,,,,139.57383704202948,139.5787223340012,140.07071041699965,140.07071041699965,140.14077237498714,140.14077237498714,140.14077237498714,140.53925145900575,left,0.9572020409977995,None,140.53932641702704,140.53935274999822,None,,,,,,,,,,,,eli,0,2025-09-08_18h58.16.085,tilt_mocs,2024.2.4,None,2025-09-08 18h58.24.525929 -0400,
-4.861111111111111,-15.0,,43,43,0,,,,,,,,,,p1,negs,100,left,0.9336645000148565,None,None,,,,,,,,,,,0,43,43,473,140.54568887501955,,,,,,,,,,,,,,,,,,,,,,,,,,,,,,,,,,,,,,,,,,,,,,,,,,,,,,,140.54070058400976,140.54568887501955,141.03730291698594,141.03730291698594,141.10757875000127,141.10757875000127,141.10757875000127,141.48855050001293,left,0.9336645000148565,None,141.48862437502248,141.48865474999184,None,,,,,,,,,,,,eli,0,2025-09-08_18h58.16.085,tilt_mocs,2024.2.4,None,2025-09-08 18h58.24.525929 -0400,
0.3333333333333332,0.0,,44,44,0,,,,,,,,,,m3,noss,0,left,0.9848039580392651,None,None,,,,,,,,,,,0,44,44,564,141.49403041700134,,,,,,,,,,,,,,,,,,,,,,,,,,,,,,,,,,,,,,,,,,,,,,,,,,,,,,,141.48990262497682,141.49403041700134,141.98678750003455,141.98678750003455,142.0566853749915,142.0566853749915,142.0566853749915,142.48801195900887,left,0.9848039580392651,None,142.48807912500342,142.48810283403145,None,,,,,,,,,,,,eli,0,2025-09-08_18h58.16.085,tilt_mocs,2024.2.4,None,2025-09-08 18h58.24.525929 -0400,
1.6666666666666667,0.0,,45,45,0,,,,,,,,,,p1,noss,0,right,0.9301998330047354,None,None,,,,,,,,,,,0,45,45,645,142.49288049997995,,,,,,,,,,,,,,,,,,,,,,,,,,,,,,,,,,,,,,,,,,,,,,,,,,,,,,,142.48915845900774,142.49288049997995,142.97481304203393,142.97481304203393,143.04016425000736,143.04016425000736,143.05781104200287,143.4249379169778,right,0.9301998330047354,None,143.42499637498986,143.42501558398362,None,,,,,,,,,,,,eli,0,2025-09-08_18h58.16.085,tilt_mocs,2024.2.4,None,2025-09-08 18h58.24.525929 -0400,
2.166666666666667,0.0,,46,46,0,,,,,,,,,,p2,noss,0,right,0.8586903749965131,None,None,,,,,,,,,,,0,46,46,676,143.43677825003397,,,,,,,,,,,,,,,,,,,,,,,,,,,,,,,,,,,,,,,,,,,,,,,,,,,,,,,143.42589808400953,143.43677825003397,143.9237489590305,143.9237489590305,143.98959175002528,143.98959175002528,144.00352591701085,144.30646895902464,right,0.8586903749965131,None,144.3066026250017,144.30665245902492,None,,,,,,,,,,,,eli,0,2025-09-08_18h58.16.085,tilt_mocs,2024.2.4,None,2025-09-08 18h58.24.525929 -0400,
-4.361111111111111,-15.0,,47,47,0,,,,,,,,,,p2,negs,100,left,1.0847575830412097,None,None,,,,,,,,,,,0,47,47,515,144.31420070899185,,,,,,,,,,,,,,,,,,,,,,,,,,,,,,,,,,,,,,,,,,,,,,,,,,,,,,,144.30846758402186,144.31420070899185,144.80427412502468,144.80427412502468,144.87555466702906,144.87555466702906,144.87555466702906,145.40476087498246,left,1.0847575830412097,None,145.40480920899427,145.40482425002847,None,,,,,,,,,,,,eli,0,2025-09-08_18h58.16.085,tilt_mocs,2024.2.4,None,2025-09-08 18h58.24.525929 -0400,
-6.361111111111111,-15.0,,48,48,0,,,,,,,,,,m2,negs,100,left,0.9262349170166999,None,None,,,,,,,,,,,0,48,48,345,145.40935891697882,,,,,,,,,,,,,,,,,,,,,,,,,,,,,,,,,,,,,,,,,,,,,,,,,,,,,,,145.40558483399218,145.40935891697882,145.89394170901505,145.89394170901505,145.97001491702395,145.97001491702395,145.97351170901675,146.33950891700806,left,0.9262349170166999,None,146.339603542001,146.33964045898756,None,,,,,,,,,,,,eli,0,2025-09-08_18h58.16.085,tilt_mocs,2024.2.4,None,2025-09-08 18h58.24.525929 -0400,
4.944444444444445,15.0,,49,49,0,,,,,,,,,,p3,poss,100,left,0.9158173340256326,None,None,,,,,,,,,,,0,49,49,251,146.3475275419769,,,,,,,,,,,,,,,,,,,,,,,,,,,,,,,,,,,,,,,,,,,,,,,,,,,,,,,146.34133600001223,146.3475275419769,146.83795966702746,146.83795966702746,146.9077510840143,146.9077510840143,146.9077510840143,147.27334416698432,left,0.9158173340256326,None,147.27346879203105,147.27351670898497,None,,,,,,,,,,,,eli,0,2025-09-08_18h58.16.085,tilt_mocs,2024.2.4,None,2025-09-08 18h58.24.525929 -0400,
-5.861111111111111,-15.0,,50,50,0,,,,,,,,,,m1,negs,100,left,0.902460333018098,None,None,,,,,,,,,,,0,50,50,391,147.28148979198886,,,,,,,,,,,,,,,,,,,,,,,,,,,,,,,,,,,,,,,,,,,,,,,,,,,,,,,147.27535583399003,147.28148979198886,147.77091095899232,147.77091095899232,147.8416370000341,147.8416370000341,147.8416370000341,148.18987112498144,left,0.902460333018098,None,148.19000079203397,148.19004991702968,None,,,,,,,,,,,,eli,0,2025-09-08_18h58.16.085,tilt_mocs,2024.2.4,None,2025-09-08 18h58.24.525929 -0400,
0.3333333333333332,0.0,,51,51,0,,,,,,,,,,m3,noss,0,right,1.2329048750107177,None,None,,,,,,,,,,,0,51,51,574,148.19822795898654,,,,,,,,,,,,,,,,,,,,,,,,,,,,,,,,,,,,,,,,,,,,,,,,,,,,,,,148.1919777499861,148.19822795898654,148.68770474998746,148.68770474998746,148.75811587501084,148.75811587501084,148.75811587501084,149.43798745900858,right,1.2329048750107177,None,149.43805412499933,149.4380779589992,None,,,,,,,,,,,,eli,0,2025-09-08_18h58.16.085,tilt_mocs,2024.2.4,None,2025-09-08 18h58.24.525929 -0400,
-3.861111111111111,-15.0,,52,52,0,,,,,,,,,,p3,negs,100,left,0.830162417027168,None,None,,,,,,,,,,,0,52,52,527,149.44290754199028,,,,,,,,,,,,,,,,,,,,,,,,,,,,,,,,,,,,,,,,,,,,,,,,,,,,,,,149.4391370000085,149.44290754199028,149.92499437503284,149.92499437503284,150.00373320898507,150.00373320898507,150.00679612503154,150.27627783402568,left,0.830162417027168,None,150.27637929201592,150.27641729201423,None,,,,,,,,,,,,eli,0,2025-09-08_18h58.16.085,tilt_mocs,2024.2.4,None,2025-09-08 18h58.24.525929 -0400,
1.1666666666666667,0.0,,53,53,0,,,,,,,,,,PSE,noss,0,left,0.8489072499796748,None,None,,,,,,,,,,,0,53,53,632,150.28732137498446,,,,,,,,,,,,,,,,,,,,,,,,,,,,,,,,,,,,,,,,,,,,,,,,,,,,,,,150.2782119170297,150.28732137498446,150.7774590420304,150.7774590420304,150.8545289169997,150.8545289169997,150.8545289169997,151.13920083403355,left,0.8489072499796748,None,151.13929404201917,151.1393308750121,None,,,,,,,,,,,,eli,0,2025-09-08_18h58.16.085,tilt_mocs,2024.2.4,None,2025-09-08 18h58.24.525929 -0400,
1.944444444444444,15.0,,54,54,0,,,,,,,,,,m3,poss,100,left,0.899218708043918,None,None,,,,,,,,,,,0,54,54,7,151.14847950002877,,,,,,,,,,,,,,,,,,,,,,,,,,,,,,,,,,,,,,,,,,,,,,,,,,,,,,,151.14251983398572,151.14847950002877,151.6376067919773,151.6376067919773,151.70733308402123,151.70733308402123,151.70733308402123,152.05533037503483,left,0.899218708043918,None,152.05540441698395,152.055431167013,None,,,,,,,,,,,,eli,0,2025-09-08_18h58.16.085,tilt_mocs,2024.2.4,None,2025-09-08 18h58.24.525929 -0400,
4.944444444444445,15.0,,55,55,0,,,,,,,,,,p3,poss,100,left,0.9140905000385828,None,None,,,,,,,,,,,0,55,55,273,152.06145704200026,,,,,,,,,,,,,,,,,,,,,,,,,,,,,,,,,,,,,,,,,,,,,,,,,,,,,,,152.0566265420057,152.06145704200026,152.55431137501728,152.55431137501728,152.62405520898756,152.62405520898756,152.62405520898756,152.98875970899826,left,0.9140905000385828,None,152.98883733397815,152.98886508401483,None,,,,,,,,,,,,eli,0,2025-09-08_18h58.16.085,tilt_mocs,2024.2.4,None,2025-09-08 18h58.24.525929 -0400,
3.444444444444444,15.0,,56,56,0,,,,,,,,,,PSE,poss,100,left,1.0529661659966223,None,None,,,,,,,,,,,0,56,56,142,152.99460554198595,,,,,,,,,,,,,,,,,,,,,,,,,,,,,,,,,,,,,,,,,,,,,,,,,,,,,,,152.99004649999551,152.99460554198595,153.4868062090245,153.4868062090245,153.55717879201984,153.55717879201984,153.55717879201984,154.0556062500109,left,1.0529661659966223,None,154.05568208399927,154.05570870899828,None,,,,,,,,,,,,eli,0,2025-09-08_18h58.16.085,tilt_mocs,2024.2.4,None,2025-09-08 18h58.24.525929 -0400,
4.444444444444445,15.0,,57,57,0,,,,,,,,,,p2,poss,100,right,1.0490681249648333,None,None,,,,,,,,,,,0,57,57,230,154.06137487501837,,,,,,,,,,,,,,,,,,,,,,,,,,,,,,,,,,,,,,,,,,,,,,,,,,,,,,,154.05687966698315,154.06137487501837,154.55433741700836,154.55433741700836,154.62372508400586,154.62372508400586,154.62372508400586,155.12261395901442,right,1.0490681249648333,None,155.1226976669859,155.12272829201538,None,,,,,,,,,,,,eli,0,2025-09-08_18h58.16.085,tilt_mocs,2024.2.4,None,2025-09-08 18h58.24.525929 -0400,
-4.861111111111111,-15.0,,58,58,0,,,,,,,,,,p1,negs,100,left,0.8144375839619897,None,None,,,,,,,,,,,0,58,58,448,155.12963045900688,,,,,,,,,,,,,,,,,,,,,,,,,,,,,,,,,,,,,,,,,,,,,,,,,,,,,,,155.12415275000967,155.12963045900688,155.62089191703126,155.62089191703126,155.69119129201863,155.69119129201863,155.69119129201863,155.9546320840018,left,0.8144375839619897,None,155.95470187498722,155.95472475001588,None,,,,,,,,,,,,eli,0,2025-09-08_18h58.16.085,tilt_mocs,2024.2.4,None,2025-09-08 18h58.24.525929 -0400,
0.6666666666666667,0.0,,59,59,0,,,,,,,,,,m1,noss,0,right,0.9135211250395514,None,None,,,,,,,,,,,0,59,59,609,155.95921995898243,,,,,,,,,,,,,,,,,,,,,,,,,,,,,,,,,,,,,,,,,,,,,,,,,,,,,,,155.9557645000168,155.95921995898243,156.4534957089927,156.4534957089927,156.524084417033,156.524084417033,156.524084417033,156.87696170900017,right,0.9135211250395514,None,156.87700274999952,156.8770162499859,None,,,,,,,,,,,,eli,0,2025-09-08_18h58.16.085,tilt_mocs,2024.2.4,None,2025-09-08 18h58.24.525929 -0400,
0.6666666666666667,0.0,,60,60,0,,,,,,,,,,m1,noss,0,right,0.9139160419581458,None,None,,,,,,,,,,,0,60,60,617,156.88666054198984,,,,,,,,,,,,,,,,,,,,,,,,,,,,,,,,,,,,,,,,,,,,,,,,,,,,,,,156.8776382090291,156.88666054198984,157.37776825000765,157.37776825000765,157.45650820899755,157.45650820899755,157.4533636670094,157.80703808402177,right,0.9139160419581458,None,157.80721491703298,157.80725991702639,None,,,,,,,,,,,,eli,0,2025-09-08_18h58.16.085,tilt_mocs,2024.2.4,None,2025-09-08 18h58.24.525929 -0400,
0.1666666666666667,0.0,,61,61,0,,,,,,,,,,m2,noss,0,right,1.090325541968923,None,None,,,,,,,,,,,0,61,61,587,157.8154369170079,,,,,,,,,,,,,,,,,,,,,,,,,,,,,,,,,,,,,,,,,,,,,,,,,,,,,,,157.80924824997783,157.8154369170079,158.30427758401493,158.30427758401493,158.37592324998695,158.37592324998695,158.37592324998695,158.90901000000304,right,1.090325541968923,None,158.90909008402377,158.90912050002953,None,,,,,,,,,,,,eli,0,2025-09-08_18h58.16.085,tilt_mocs,2024.2.4,None,2025-09-08 18h58.24.525929 -0400,
2.944444444444444,15.0,,62,62,0,,,,,,,,,,m1,poss,100,left,0.9591701669851318,None,None,,,,,,,,,,,0,62,62,119,158.91996987501625,,,,,,,,,,,,,,,,,,,,,,,,,,,,,,,,,,,,,,,,,,,,,,,,,,,,,,,158.91055475000758,158.91996987501625,159.40426024998305,159.40426024998305,159.47300341702066,159.47300341702066,159.4867870840244,159.8902208749787,left,0.9591701669851318,None,159.89037162502063,159.89043058402603,None,,,,,,,,,,,,eli,0,2025-09-08_18h58.16.085,tilt_mocs,2024.2.4,None,2025-09-08 18h58.24.525929 -0400,
3.944444444444444,15.0,,63,63,0,,,,,,,,,,p1,poss,100,right,0.7815639170003124,None,None,,,,,,,,,,,0,63,63,196,159.89829062501667,,,,,,,,,,,,,,,,,,,,,,,,,,,,,,,,,,,,,,,,,,,,,,,,,,,,,,,159.8924677920295,159.89829062501667,160.38661674998002,160.38661674998002,160.4568982499768,160.4568982499768,160.4568982499768,160.69119937502546,right,0.7815639170003124,None,160.69172129197977,160.69176358397817,None,,,,,,,,,,,,eli,0,2025-09-08_18h58.16.085,tilt_mocs,2024.2.4,None,2025-09-08 18h58.24.525929 -0400,
2.944444444444444,15.0,,64,64,0,,,,,,,,,,m1,poss,100,right,0.811892458004877,None,None,,,,,,,,,,,0,64,64,93,160.70741770899622,,,,,,,,,,,,,,,,,,,,,,,,,,,,,,,,,,,,,,,,,,,,,,,,,,,,,,,160.69444350001868,160.70741770899622,161.19251208403148,161.19251208403148,161.2708867500187,161.2708867500187,161.25840629200684,161.52159158402355,right,0.811892458004877,None,161.5216657500132,161.5216916250065,None,,,,,,,,,,,,eli,0,2025-09-08_18h58.16.085,tilt_mocs,2024.2.4,None,2025-09-08 18h58.24.525929 -0400,
1.944444444444444,15.0,,65,65,0,,,,,,,,,,m3,poss,100,right,0.9450313749839552,None,None,,,,,,,,,,,0,65,65,35,161.52708820899716,,,,,,,,,,,,,,,,,,,,,,,,,,,,,,,,,,,,,,,,,,,,,,,,,,,,,,,161.5228971670149,161.52708820899716,162.02010858402355,162.02010858402355,162.09028287499677,162.09028287499677,162.09028287499677,162.47429291700246,right,0.9450313749839552,None,162.47435725003015,162.47438050003257,None,,,,,,,,,,,,eli,0,2025-09-08_18h58.16.085,tilt_mocs,2024.2.4,None,2025-09-08 18h58.24.525929 -0400,
4.944444444444445,15.0,,66,66,0,,,,,,,,,,p3,poss,100,left,0.920696708955802,None,None,,,,,,,,,,,0,66,66,277,162.48667433398077,,,,,,,,,,,,,,,,,,,,,,,,,,,,,,,,,,,,,,,,,,,,,,,,,,,,,,,162.47547649999615,162.48667433398077,162.9744826250244,162.9744826250244,163.04012933402555,163.04012933402555,163.04012933402555,163.4090970000252,left,0.920696708955802,None,163.4091902920045,163.40922050003428,None,,,,,,,,,,,,eli,0,2025-09-08_18h58.16.085,tilt_mocs,2024.2.4,None,2025-09-08 18h58.24.525929 -0400,
4.444444444444445,15.0,,67,67,0,,,,,,,,,,p2,poss,100,left,0.9640382090001367,None,None,,,,,,,,,,,0,67,67,220,163.41997204202926,,,,,,,,,,,,,,,,,,,,,,,,,,,,,,,,,,,,,,,,,,,,,,,,,,,,,,,163.41063958400628,163.41997204202926,163.90349504200276,163.90349504200276,163.97302416700404,163.97302416700404,163.98705570900347,164.38972591701895,left,0.9640382090001367,None,164.3898312090314,164.38987779198214,None,,,,,,,,,,,,eli,0,2025-09-08_18h58.16.085,tilt_mocs,2024.2.4,None,2025-09-08 18h58.24.525929 -0400,
-3.861111111111111,-15.0,,68,68,0,,,,,,,,,,p3,negs,100,left,0.9929038749542087,None,None,,,,,,,,,,,0,68,68,553,164.3978030839935,,,,,,,,,,,,,,,,,,,,,,,,,,,,,,,,,,,,,,,,,,,,,,,,,,,,,,,164.39169983402826,164.3978030839935,164.88762420899002,164.88762420899002,164.95606208400568,164.95606208400568,164.95606208400568,165.39259537501493,left,0.9929038749542087,None,165.39268325001467,165.39271479198942,None,,,,,,,,,,,,eli,0,2025-09-08_18h58.16.085,tilt_mocs,2024.2.4,None,2025-09-08 18h58.24.525929 -0400,
3.444444444444444,15.0,,69,69,0,,,,,,,,,,PSE,poss,100,left,0.8916633749613538,None,None,,,,,,,,,,,0,69,69,158,165.40409204200841,,,,,,,,,,,,,,,,,,,,,,,,,,,,,,,,,,,,,,,,,,,,,,,,,,,,,,,165.39429983397713,165.40409204200841,165.89398837502813,165.89398837502813,165.9731490840204,165.9731490840204,165.9698955839849,166.3062942919787,left,0.8916633749613538,None,166.30640295898775,166.30644070898416,None,,,,,,,,,,,,eli,0,2025-09-08_18h58.16.085,tilt_mocs,2024.2.4,None,2025-09-08 18h58.24.525929 -0400,
3.944444444444444,15.0,,70,70,0,,,,,,,,,,p1,poss,100,left,0.9069612080347724,None,None,,,,,,,,,,,0,70,70,183,166.31369470898062,,,,,,,,,,,,,,,,,,,,,,,,,,,,,,,,,,,,,,,,,,,,,,,,,,,,,,,166.3082166669774,166.31369470898062,166.80414654198103,166.80414654198103,166.8765039999853,166.8765039999853,166.8765039999853,167.22389545902843,left,0.9069612080347724,None,167.22400124999695,167.2240466250223,None,,,,,,,,,,,,eli,0,2025-09-08_18h58.16.085,tilt_mocs,2024.2.4,None,2025-09-08 18h58.24.525929 -0400,
-4.361111111111111,-15.0,,71,71,0,,,,,,,,,,p2,negs,100,left,0.8252976250369102,None,None,,,,,,,,,,,0,71,71,491,167.23132274998352,,,,,,,,,,,,,,,,,,,,,,,,,,,,,,,,,,,,,,,,,,,,,,,,,,,,,,,167.22580383397872,167.23132274998352,167.720964542008,167.720964542008,167.79195174999768,167.79195174999768,167.79195174999768,168.05805404199054,left,0.8252976250369102,None,168.0581148749916,168.05814308399567,None,,,,,,,,,,,,eli,0,2025-09-08_18h58.16.085,tilt_mocs,2024.2.4,None,2025-09-08 18h58.24.525929 -0400,
-6.861111111111111,-15.0,,72,72,0,,,,,,,,,,m3,negs,100,left,0.80258399999002,None,None,,,,,,,,,,,0,72,72,301,168.07018437498482,,,,,,,,,,,,,,,,,,,,,,,,,,,,,,,,,,,,,,,,,,,,,,,,,,,,,,,168.05922645900864,168.07018437498482,168.55784433399094,168.55784433399094,168.62403466698015,168.62403466698015,168.62403466698015,168.87797695898917,left,0.80258399999002,None,168.8780822090339,168.87811966700247,None,,,,,,,,,,,,eli,0,2025-09-08_18h58.16.085,tilt_mocs,2024.2.4,None,2025-09-08 18h58.24.525929 -0400,
3.444444444444444,15.0,,73,73,0,,,,,,,,,,PSE,poss,100,left,0.8562892919871956,None,None,,,,,,,,,,,0,73,73,154,168.8866664590314,,,,,,,,,,,,,,,,,,,,,,,,,,,,,,,,,,,,,,,,,,,,,,,,,,,,,,,168.8798733750009,168.8866664590314,169.37829258397687,169.37829258397687,169.45708870899398,169.45708870899398,169.45428212499246,169.74492237501545,left,0.8562892919871956,None,169.74503533402458,169.74507329199696,None,,,,,,,,,,,,eli,0,2025-09-08_18h58.16.085,tilt_mocs,2024.2.4,None,2025-09-08 18h58.24.525929 -0400,
-5.361111111111111,-15.0,,74,74,0,,,,,,,,,,PSE,negs,100,left,0.8703008340089582,None,None,,,,,,,,,,,0,74,74,418,169.75334187498083,,,,,,,,,,,,,,,,,,,,,,,,,,,,,,,,,,,,,,,,,,,,,,,,,,,,,,,169.74692337500164,169.75334187498083,170.2410687499796,170.2410687499796,170.3076175840106,170.3076175840106,170.32049633399583,170.62545762502123,left,0.8703008340089582,None,170.62553733401,170.62557691702386,None,,,,,,,,,,,,eli,0,2025-09-08_18h58.16.085,tilt_mocs,2024.2.4,None,2025-09-08 18h58.24.525929 -0400,
1.944444444444444,15.0,,75,75,0,,,,,,,,,,m3,poss,100,left,0.8093693749979138,None,None,,,,,,,,,,,0,75,75,20,170.6375097919954,,,,,,,,,,,,,,,,,,,,,,,,,,,,,,,,,,,,,,,,,,,,,,,,,,,,,,,170.62706454202998,170.6375097919954,171.126588833984,171.126588833984,171.20428008399904,171.20428008399904,171.20428008399904,171.45556116697844,left,0.8093693749979138,None,171.45563312497688,171.45565858401824,None,,,,,,,,,,,,eli,0,2025-09-08_18h58.16.085,tilt_mocs,2024.2.4,None,2025-09-08 18h58.24.525929 -0400,
1.1666666666666667,0.0,,76,76,0,,,,,,,,,,PSE,noss,0,left,0.9282226670184173,None,None,,,,,,,,,,,0,76,76,630,171.46188308403362,,,,,,,,,,,,,,,,,,,,,,,,,,,,,,,,,,,,,,,,,,,,,,,,,,,,,,,171.45674066699576,171.46188308403362,171.95313712500501,171.95313712500501,172.02310679201037,172.02310679201037,172.02310679201037,172.3920780000044,left,0.9282226670184173,None,172.3921362499823,172.39215700002387,None,,,,,,,,,,,,eli,0,2025-09-08_18h58.16.085,tilt_mocs,2024.2.4,None,2025-09-08 18h58.24.525929 -0400,
4.944444444444445,15.0,,77,77,0,,,,,,,,,,p3,poss,100,left,0.8865456249914132,None,None,,,,,,,,,,,0,77,77,253,172.4034588750219,,,,,,,,,,,,,,,,,,,,,,,,,,,,,,,,,,,,,,,,,,,,,,,,,,,,,,,172.39311775000533,172.4034588750219,172.88765429198975,172.88765429198975,172.9566377089941,172.9566377089941,172.9699693750008,173.29480299999705,left,0.8865456249914132,None,173.29490600002464,173.2949433340109,None,,,,,,,,,,,,eli,0,2025-09-08_18h58.16.085,tilt_mocs,2024.2.4,None,2025-09-08 18h58.24.525929 -0400,
4.444444444444445,15.0,,78,78,0,,,,,,,,,,p2,poss,100,left,1.2235082910046913,None,None,,,,,,,,,,,0,78,78,202,173.30354166700272,,,,,,,,,,,,,,,,,,,,,,,,,,,,,,,,,,,,,,,,,,,,,,,,,,,,,,,173.2971180420136,173.30354166700272,173.792386333982,173.792386333982,173.87071925000055,173.87071925000055,173.87071925000055,174.53885804198217,left,1.2235082910046913,None,174.53894054202829,174.53897125000367,None,,,,,,,,,,,,eli,0,2025-09-08_18h58.16.085,tilt_mocs,2024.2.4,None,2025-09-08 18h58.24.525929 -0400,
2.444444444444444,15.0,,79,79,0,,,,,,,,,,m2,poss,100,left,0.9975936249829829,None,None,,,,,,,,,,,0,79,79,76,174.54502320900792,,,,,,,,,,,,,,,,,,,,,,,,,,,,,,,,,,,,,,,,,,,,,,,,,,,,,,,174.54040620900923,174.54502320900792,175.0369993749773,175.0369993749773,175.1073176250211,175.1073176250211,175.1073176250211,175.55498120898847,left,0.9975936249829829,None,175.55505399999674,175.55507770902477,None,,,,,,,,,,,,eli,0,2025-09-08_18h58.16.085,tilt_mocs,2024.2.4,None,2025-09-08 18h58.24.525929 -0400,
-6.361111111111111,-15.0,,80,80,0,,,,,,,,,,m2,negs,100,left,1.0632236669771373,None,None,,,,,,,,,,,0,80,80,353,175.56064416700974,,,,,,,,,,,,,,,,,,,,,,,,,,,,,,,,,,,,,,,,,,,,,,,,,,,,,,,175.5561687920126,175.56064416700974,176.05396649998147,176.05396649998147,176.124015917012,176.124015917012,176.124015917012,176.6259637090261,left,1.0632236669771373,None,176.6260725419852,176.6261097919778,None,,,,,,,,,,,,eli,0,2025-09-08_18h58.16.085,tilt_mocs,2024.2.4,None,2025-09-08 18h58.24.525929 -0400,
-3.861111111111111,-15.0,,81,81,0,,,,,,,,,,p3,negs,100,left,1.0408593750325963,None,None,,,,,,,,,,,0,81,81,541,176.63751766702626,,,,,,,,,,,,,,,,,,,,,,,,,,,,,,,,,,,,,,,,,,,,,,,,,,,,,,,176.62799012498,176.63751766702626,177.126608208986,177.126608208986,177.20434370898874,177.20434370898874,177.20434370898874,177.68977295898367,left,1.0408593750325963,None,177.68986612500157,177.68990287499037,None,,,,,,,,,,,,eli,0,2025-09-08_18h58.16.085,tilt_mocs,2024.2.4,None,2025-09-08 18h58.24.525929 -0400,
0.1666666666666667,0.0,,82,82,0,,,,,,,,,,m2,noss,0,left,0.9489339159918018,None,None,,,,,,,,,,,0,82,82,597,177.69782970898086,,,,,,,,,,,,,,,,,,,,,,,,,,,,,,,,,,,,,,,,,,,,,,,,,,,,,,,177.69162116700318,177.69782970898086,178.18756458401913,178.18756458401913,178.25977358402452,178.25977358402452,178.25977358402452,178.65508837503148,left,0.9489339159918018,None,178.65518125001108,178.65521841699956,None,,,,,,,,,,,,eli,0,2025-09-08_18h58.16.085,tilt_mocs,2024.2.4,None,2025-09-08 18h58.24.525929 -0400,
1.944444444444444,15.0,,83,83,0,,,,,,,,,,m3,poss,100,left,0.9136733750347048,None,None,,,,,,,,,,,0,83,83,33,178.66148679202888,,,,,,,,,,,,,,,,,,,,,,,,,,,,,,,,,,,,,,,,,,,,,,,,,,,,,,,178.65687912498834,178.66148679202888,179.1542671250063,179.1542671250063,179.22621437499765,179.22621437499765,179.22621437499765,179.58904254197842,left,0.9136733750347048,None,179.5891269170097,179.5891581249889,None,,,,,,,,,,,,eli,0,2025-09-08_18h58.16.085,tilt_mocs,2024.2.4,None,2025-09-08 18h58.24.525929 -0400,
2.444444444444444,15.0,,84,84,0,,,,,,,,,,m2,poss,100,left,0.9793950000312179,None,None,,,,,,,,,,,0,84,84,49,179.59613100002753,,,,,,,,,,,,,,,,,,,,,,,,,,,,,,,,,,,,,,,,,,,,,,,,,,,,,,,179.5905624590232,179.59613100002753,180.08746487501776,180.08746487501776,180.15779700002167,180.15779700002167,180.15779700002167,180.58908862498356,left,0.9793950000312179,None,180.58916858403245,180.58919862500625,None,,,,,,,,,,,,eli,0,2025-09-08_18h58.16.085,tilt_mocs,2024.2.4,None,2025-09-08 18h58.24.525929 -0400,
1.1666666666666667,0.0,,85,85,0,,,,,,,,,,PSE,noss,0,left,0.9143323330208659,None,None,,,,,,,,,,,0,85,85,626,180.59624833398266,,,,,,,,,,,,,,,,,,,,,,,,,,,,,,,,,,,,,,,,,,,,,,,,,,,,,,,180.59060204197885,180.59624833398266,181.08681620901916,181.08681620901916,181.1629165839986,181.1629165839986,181.1629165839986,181.5213977090316,left,0.9143323330208659,None,181.52147024997976,181.5214971670066,None,,,,,,,,,,,,eli,0,2025-09-08_18h58.16.085,tilt_mocs,2024.2.4,None,2025-09-08 18h58.24.525929 -0400,
0.3333333333333332,0.0,,86,86,0,,,,,,,,,,m3,noss,0,left,0.8810530410264619,None,None,,,,,,,,,,,0,86,86,576,181.52623000001768,,,,,,,,,,,,,,,,,,,,,,,,,,,,,,,,,,,,,,,,,,,,,,,,,,,,,,,181.52266416698694,181.52623000001768,182.02004487498198,182.02004487498198,182.0902913340251,182.0902913340251,182.0902913340251,182.40912633400876,left,0.8810530410264619,None,182.4092152090161,182.40924687503139,None,,,,,,,,,,,,eli,0,2025-09-08_18h58.16.085,tilt_mocs,2024.2.4,None,2025-09-08 18h58.24.525929 -0400,
-6.361111111111111,-15.0,,87,87,0,,,,,,,,,,m2,negs,100,left,0.9951323749846779,None,None,,,,,,,,,,,0,87,87,329,182.4199576670071,,,,,,,,,,,,,,,,,,,,,,,,,,,,,,,,,,,,,,,,,,,,,,,,,,,,,,,182.41063008399215,182.4199576670071,182.90417183400132,182.90417183400132,182.97309670899995,182.97309670899995,182.98654524999438,183.42185674997745,left,0.9951323749846779,None,183.421918292006,183.42194108403055,None,,,,,,,,,,,,eli,0,2025-09-08_18h58.16.085,tilt_mocs,2024.2.4,None,2025-09-08 18h58.24.525929 -0400,
-6.361111111111111,-15.0,,88,88,0,,,,,,,,,,m2,negs,100,left,0.9958932499866933,None,None,,,,,,,,,,,0,88,88,327,183.42676150001353,,,,,,,,,,,,,,,,,,,,,,,,,,,,,,,,,,,,,,,,,,,,,,,,,,,,,,,183.4230498750112,183.42676150001353,183.92085395898903,183.92085395898903,183.98989875003463,183.98989875003463,183.98989875003463,184.4248592919903,left,0.9958932499866933,None,184.42491870903177,184.42493945901515,None,,,,,,,,,,,,eli,0,2025-09-08_18h58.16.085,tilt_mocs,2024.2.4,None,2025-09-08 18h58.24.525929 -0400,
1.944444444444444,15.0,,89,89,0,,,,,,,,,,m3,poss,100,left,1.119540958025027,None,None,,,,,,,,,,,0,89,89,29,184.43646012502722,,,,,,,,,,,,,,,,,,,,,,,,,,,,,,,,,,,,,,,,,,,,,,,,,,,,,,,184.42587420903146,184.43646012502722,184.9245388340205,184.9245388340205,185.00343695899937,185.00343695899937,185.00343695899937,185.55852087499807,left,1.119540958025027,None,185.5585908750072,185.55861670902232,None,,,,,,,,,,,,eli,0,2025-09-08_18h58.16.085,tilt_mocs,2024.2.4,None,2025-09-08 18h58.24.525929 -0400,
4.944444444444445,15.0,,90,90,0,,,,,,,,,,p3,poss,100,left,1.0127421659999527,None,None,,,,,,,,,,,0,90,90,271,185.57065558398608,,,,,,,,,,,,,,,,,,,,,,,,,,,,,,,,,,,,,,,,,,,,,,,,,,,,,,,185.56009841698688,185.57065558398608,186.058348999999,186.058348999999,186.12344437499996,186.12344437499996,186.13745737500722,186.5893261670135,left,1.0127421659999527,None,186.58943012502277,186.58946829201886,None,,,,,,,,,,,,eli,0,2025-09-08_18h58.16.085,tilt_mocs,2024.2.4,None,2025-09-08 18h58.24.525929 -0400,
0.1666666666666667,0.0,,91,91,0,,,,,,,,,,m2,noss,0,right,1.2426163750351407,None,None,,,,,,,,,,,0,91,91,583,186.5967657500296,,,,,,,,,,,,,,,,,,,,,,,,,,,,,,,,,,,,,,,,,,,,,,,,,,,,,,,186.59110387502005,186.5967657500296,187.0875019170344,187.0875019170344,187.15824766701553,187.15824766701553,187.15824766701553,187.8448252499802,right,1.2426163750351407,None,187.84492091700668,187.8449574999977,None,,,,,,,,,,,,eli,0,2025-09-08_18h58.16.085,tilt_mocs,2024.2.4,None,2025-09-08 18h58.24.525929 -0400,
4.444444444444445,15.0,,92,92,0,,,,,,,,,,p2,poss,100,left,1.1783101669861935,None,None,,,,,,,,,,,0,92,92,200,187.85333245899528,,,,,,,,,,,,,,,,,,,,,,,,,,,,,,,,,,,,,,,,,,,,,,,,,,,,,,,187.8467413340113,187.85333245899528,188.3441678750096,188.3441678750096,188.42048379202606,188.42048379202606,188.42048379202606,189.0386912500253,left,1.1783101669861935,None,189.03876458399463,189.03879141702782,None,,,,,,,,,,,,eli,0,2025-09-08_18h58.16.085,tilt_mocs,2024.2.4,None,2025-09-08 18h58.24.525929 -0400,
2.666666666666667,0.0,,93,93,0,,,,,,,,,,p3,noss,0,right,1.0116463330341503,None,None,,,,,,,,,,,0,93,93,699,189.04472283401992,,,,,,,,,,,,,,,,,,,,,,,,,,,,,,,,,,,,,,,,,,,,,,,,,,,,,,,189.04002087499248,189.04472283401992,189.5369964169804,189.5369964169804,189.60780570900533,189.60780570900533,189.60780570900533,190.05882895900868,right,1.0116463330341503,None,190.05891033401713,190.0589436669834,None,,,,,,,,,,,,eli,0,2025-09-08_18h58.16.085,tilt_mocs,2024.2.4,None,2025-09-08 18h58.24.525929 -0400,
2.666666666666667,0.0,,94,94,0,,,,,,,,,,p3,noss,0,right,0.8960035410127603,None,None,,,,,,,,,,,0,94,94,695,190.0707896249951,,,,,,,,,,,,,,,,,,,,,,,,,,,,,,,,,,,,,,,,,,,,,,,,,,,,,,,190.06036145897815,190.0707896249951,190.558549917012,190.558549917012,190.6375699589844,190.6375699589844,190.6375699589844,190.9716148750158,right,0.8960035410127603,None,190.97169849998318,190.9717289999826,None,,,,,,,,,,,,eli,0,2025-09-08_18h58.16.085,tilt_mocs,2024.2.4,None,2025-09-08 18h58.24.525929 -0400,
-6.361111111111111,-15.0,,95,95,0,,,,,,,,,,m2,negs,100,left,0.9495038749882951,None,None,,,,,,,,,,,0,95,95,343,190.97740316699492,,,,,,,,,,,,,,,,,,,,,,,,,,,,,,,,,,,,,,,,,,,,,,,,,,,,,,,190.97313029202633,190.97740316699492,191.4698545000283,191.4698545000283,191.5400610420038,191.5400610420038,191.5400610420038,191.9377594590187,left,0.9495038749882951,None,191.9378151249839,191.9378361669951,None,,,,,,,,,,,,eli,0,2025-09-08_18h58.16.085,tilt_mocs,2024.2.4,None,2025-09-08 18h58.24.525929 -0400,
-3.861111111111111,-15.0,,96,96,0,,,,,,,,,,p3,negs,100,right,1.0322074579889886,None,None,,,,,,,,,,,0,96,96,522,191.94230433402117,,,,,,,,,,,,,,,,,,,,,,,,,,,,,,,,,,,,,,,,,,,,,,,,,,,,,,,191.93880295898998,191.94230433402117,192.4247163340333,192.4247163340333,192.5033792500035,192.5033792500035,192.50647237501107,192.98792612500256,right,1.0322074579889886,None,192.9879980420228,192.9880236670142,None,,,,,,,,,,,,eli,0,2025-09-08_18h58.16.085,tilt_mocs,2024.2.4,None,2025-09-08 18h58.24.525929 -0400,
2.166666666666667,0.0,,97,97,0,,,,,,,,,,p2,noss,0,right,1.0541942919953726,None,None,,,,,,,,,,,0,97,97,662,192.99356629198883,,,,,,,,,,,,,,,,,,,,,,,,,,,,,,,,,,,,,,,,,,,,,,,,,,,,,,,192.98925108398544,192.99356629198883,193.4867140420247,193.4867140420247,193.55712583399145,193.55712583399145,193.55712583399145,194.05542787502054,right,1.0541942919953726,None,194.05550150002819,194.05552820902085,None,,,,,,,,,,,,eli,0,2025-09-08_18h58.16.085,tilt_mocs,2024.2.4,None,2025-09-08 18h58.24.525929 -0400,
-6.861111111111111,-15.0,,98,98,0,,,,,,,,,,m3,negs,100,left,1.049330999958329,None,None,,,,,,,,,,,0,98,98,314,194.06163262500195,,,,,,,,,,,,,,,,,,,,,,,,,,,,,,,,,,,,,,,,,,,,,,,,,,,,,,,194.0568110839813,194.06163262500195,194.55387045902899,194.55387045902899,194.62623137503397,194.62623137503397,194.62623137503397,195.1225890420028,left,1.049330999958329,None,195.12268829200184,195.1227261670283,None,,,,,,,,,,,,eli,0,2025-09-08_18h58.16.085,tilt_mocs,2024.2.4,None,2025-09-08 18h58.24.525929 -0400,
4.944444444444445,15.0,,99,99,0,,,,,,,,,,p3,poss,100,right,0.9168664999888279,None,None,,,,,,,,,,,0,99,99,269,195.13064733397914,,,,,,,,,,,,,,,,,,,,,,,,,,,,,,,,,,,,,,,,,,,,,,,,,,,,,,,195.1244645420229,195.13064733397914,195.6208516670158,195.6208516670158,195.691435249988,195.691435249988,195.691435249988,196.0553656250122,right,0.9168664999888279,None,196.0554398340173,196.05546641699038,None,,,,,,,,,,,,eli,0,2025-09-08_18h58.16.085,tilt_mocs,2024.2.4,None,2025-09-08 18h58.24.525929 -0400,
2.666666666666667,0.0,,100,100,0,,,,,,,,,,p3,noss,0,right,0.994114917004481,None,space,2.0248942089965567,None,,,,,,,,,0,100,100,686,196.061236583977,,,,,,,,,,,,,,,,,,,,,,,,,,,,,,,,,,,,,,,,,,,,,,,,,,,,,,,196.05661466700258,196.061236583977,196.55362170899753,196.55362170899753,196.62414883403108,196.62414883403108,196.62414883403108,197.05764608399477,right,0.994114917004481,None,197.05772500002058,199.10615275002783,space,197.07008187501924,197.07008187501924,2.0248942089965567,None,,,,,,,,eli,0,2025-09-08_18h58.16.085,tilt_mocs,2024.2.4,None,2025-09-08 18h58.24.525929 -0400,
3.944444444444444,15.0,,101,101,0,,,,,,,,,,p1,poss,100,left,0.9316626249928959,None,None,,,,,,,,,,,0,101,101,191,199.1158382089925,,,,,,,,,,,,,,,,,,,,,,,,,,,,,,,,,,,,,,,,,,,,,,,,,,,,,,,199.1080470419838,199.1158382089925,199.6041830839822,199.6041830839822,199.67452300002333,199.67452300002333,199.67452300002333,200.05528933397727,left,0.9316626249928959,None,200.05537466699025,200.05540662503336,None,,,,,,,,,,,,eli,0,2025-09-08_18h58.16.085,tilt_mocs,2024.2.4,None,2025-09-08 18h58.24.525929 -0400,
1.1666666666666667,0.0,,102,102,0,,,,,,,,,,PSE,noss,0,left,0.8720086250104941,None,None,,,,,,,,,,,0,102,102,629,200.06181366700912,,,,,,,,,,,,,,,,,,,,,,,,,,,,,,,,,,,,,,,,,,,,,,,,,,,,,,,200.05679287499515,200.06181366700912,200.55387933400925,200.55387933400925,200.62461383402115,200.62461383402115,200.62461383402115,200.93826475000242,left,0.8720086250104941,None,200.93833525001537,200.93835937499534,None,,,,,,,,,,,,eli,0,2025-09-08_18h58.16.085,tilt_mocs,2024.2.4,None,2025-09-08 18h58.24.525929 -0400,
2.444444444444444,15.0,,103,103,0,,,,,,,,,,m2,poss,100,left,0.8885058750165626,None,None,,,,,,,,,,,0,103,103,62,200.94357570901047,,,,,,,,,,,,,,,,,,,,,,,,,,,,,,,,,,,,,,,,,,,,,,,,,,,,,,,200.93946866702754,200.94357570901047,201.42499820899684,201.42499820899684,201.503682709008,201.503682709008,201.50679324998055,201.8392253339989,left,0.8885058750165626,None,201.83932404202642,201.83936087501934,None,,,,,,,,,,,,eli,0,2025-09-08_18h58.16.085,tilt_mocs,2024.2.4,None,2025-09-08 18h58.24.525929 -0400,
2.444444444444444,15.0,,104,104,0,,,,,,,,,,m2,poss,100,left,0.9679236249648966,None,None,,,,,,,,,,,0,104,104,54,201.8472980420338,,,,,,,,,,,,,,,,,,,,,,,,,,,,,,,,,,,,,,,,,,,,,,,,,,,,,,,201.84112316701794,201.8472980420338,202.3375577920233,202.3375577920233,202.40709824999794,202.40709824999794,202.40709824999794,202.8235072090174,left,0.9679236249648966,None,202.82364558399422,202.82369262498105,None,,,,,,,,,,,,eli,0,2025-09-08_18h58.16.085,tilt_mocs,2024.2.4,None,2025-09-08 18h58.24.525929 -0400,
1.944444444444444,15.0,,105,105,0,,,,,,,,,,m3,poss,100,left,0.8944688750198111,None,None,,,,,,,,,,,0,105,105,19,202.83187245897716,,,,,,,,,,,,,,,,,,,,,,,,,,,,,,,,,,,,,,,,,,,,,,,,,,,,,,,202.82576491701184,202.83187245897716,203.32002391701099,203.32002391701099,203.3901947499835,203.3901947499835,203.3901947499835,203.7391453750315,left,0.8944688750198111,None,203.73923225002363,203.73926295898855,None,,,,,,,,,,,,eli,0,2025-09-08_18h58.16.085,tilt_mocs,2024.2.4,None,2025-09-08 18h58.24.525929 -0400,
2.666666666666667,0.0,,106,106,0,,,,,,,,,,p3,noss,0,left,0.8443314579781145,None,None,,,,,,,,,,,0,106,106,687,203.746459875023,,,,,,,,,,,,,,,,,,,,,,,,,,,,,,,,,,,,,,,,,,,,,,,,,,,,,,,203.7407047500019,203.746459875023,204.2374592089909,204.2374592089909,204.30793908401392,204.30793908401392,204.30793908401392,204.60491133399773,left,0.8443314579781145,None,204.60499158402672,204.60501466703136,None,,,,,,,,,,,,eli,0,2025-09-08_18h58.16.085,tilt_mocs,2024.2.4,None,2025-09-08 18h58.24.525929 -0400,
-5.361111111111111,-15.0,,107,107,0,,,,,,,,,,PSE,negs,100,left,0.886634792026598,None,None,,,,,,,,,,,0,107,107,402,204.60862862499198,,,,,,,,,,,,,,,,,,,,,,,,,,,,,,,,,,,,,,,,,,,,,,,,,,,,,,,204.60606891702628,204.60862862499198,205.09312933398178,205.09312933398178,205.17124166700523,205.17124166700523,205.17680379201192,205.50523004197748,left,0.886634792026598,None,205.50530558399623,205.5053325840272,None,,,,,,,,,,,,eli,0,2025-09-08_18h58.16.085,tilt_mocs,2024.2.4,None,2025-09-08 18h58.24.525929 -0400,
-3.861111111111111,-15.0,,108,108,0,,,,,,,,,,p3,negs,100,left,0.967532749986276,None,None,,,,,,,,,,,0,108,108,537,205.51088600000367,,,,,,,,,,,,,,,,,,,,,,,,,,,,,,,,,,,,,,,,,,,,,,,,,,,,,,,205.5065442500054,205.51088600000367,206.00334691698663,206.00334691698663,206.07301662501413,206.07301662501413,206.07301662501413,206.4878108749981,left,0.967532749986276,None,206.4878759169951,206.48789895902155,None,,,,,,,,,,,,eli,0,2025-09-08_18h58.16.085,tilt_mocs,2024.2.4,None,2025-09-08 18h58.24.525929 -0400,
2.944444444444444,15.0,,109,109,0,,,,,,,,,,m1,poss,100,left,0.9862855829996988,None,None,,,,,,,,,,,0,109,109,82,206.4927584590041,,,,,,,,,,,,,,,,,,,,,,,,,,,,,,,,,,,,,,,,,,,,,,,,,,,,,,,206.4889741250081,206.4927584590041,206.98718958400423,206.98718958400423,207.05704104201868,207.05704104201868,207.05704104201868,207.4884565420216,left,0.9862855829996988,None,207.48852729197824,207.48856020899257,None,,,,,,,,,,,,eli,0,2025-09-08_18h58.16.085,tilt_mocs,2024.2.4,None,2025-09-08 18h58.24.525929 -0400,
4.444444444444445,15.0,,110,110,0,,,,,,,,,,p2,poss,100,right,1.01655145798577,None,None,,,,,,,,,,,0,110,110,211,207.49448191700503,,,,,,,,,,,,,,,,,,,,,,,,,,,,,,,,,,,,,,,,,,,,,,,,,,,,,,,207.489778209012,207.49448191700503,207.9865764590213,207.9865764590213,208.05689762497786,208.05689762497786,208.05689762497786,208.522283667,right,1.01655145798577,None,208.52236783399712,208.52239858399844,None,,,,,,,,,,,,eli,0,2025-09-08_18h58.16.085,tilt_mocs,2024.2.4,None,2025-09-08 18h58.24.525929 -0400,
3.444444444444444,15.0,,111,111,0,,,,,,,,,,PSE,poss,100,right,1.1648804580327123,None,None,,,,,,,,,,,0,111,111,159,208.52937750000274,,,,,,,,,,,,,,,,,,,,,,,,,,,,,,,,,,,,,,,,,,,,,,,,,,,,,,,208.52382075000787,208.52937750000274,209.02029349998338,209.02029349998338,209.0906693750294,209.0906693750294,209.0906693750294,209.7058657919988,right,1.1648804580327123,None,209.7059606250259,209.70599654200487,None,,,,,,,,,,,,eli,0,2025-09-08_18h58.16.085,tilt_mocs,2024.2.4,None,2025-09-08 18h58.24.525929 -0400,
2.444444444444444,15.0,,112,112,0,,,,,,,,,,m2,poss,100,left,1.0217461249558255,None,None,,,,,,,,,,,0,112,112,52,209.7133273750078,,,,,,,,,,,,,,,,,,,,,,,,,,,,,,,,,,,,,,,,,,,,,,,,,,,,,,,209.70775058399886,209.7133273750078,210.20417158398777,210.20417158398777,210.27381258399691,210.27381258399691,210.27381258399691,210.7403613749775,left,1.0217461249558255,None,210.74060066702077,210.7406645839801,None,,,,,,,,,,,,eli,0,2025-09-08_18h58.16.085,tilt_mocs,2024.2.4,None,2025-09-08 18h58.24.525929 -0400,
0.3333333333333332,0.0,,113,113,0,,,,,,,,,,m3,noss,0,right,0.9238673750078306,None,None,,,,,,,,,,,0,113,113,567,210.74872633401537,,,,,,,,,,,,,,,,,,,,,,,,,,,,,,,,,,,,,,,,,,,,,,,,,,,,,,,210.74248983402504,210.74872633401537,211.23748987499857,211.23748987499857,211.30924516700907,211.30924516700907,211.30924516700907,211.67599137499928,right,0.9238673750078306,None,211.67609208403155,211.67613054200774,None,,,,,,,,,,,,eli,0,2025-09-08_18h58.16.085,tilt_mocs,2024.2.4,None,2025-09-08 18h58.24.525929 -0400,
3.944444444444444,15.0,,114,114,0,,,,,,,,,,p1,poss,100,left,1.0072616249672137,None,None,,,,,,,,,,,0,114,114,177,211.68719383399002,,,,,,,,,,,,,,,,,,,,,,,,,,,,,,,,,,,,,,,,,,,,,,,,,,,,,,,211.67823379201582,211.68719383399002,212.17588854202768,212.17588854202768,212.25452333397698,212.25452333397698,212.25452333397698,212.7064374589827,left,1.0072616249672137,None,212.70657254202524,212.70661470899358,None,,,,,,,,,,,,eli,0,2025-09-08_18h58.16.085,tilt_mocs,2024.2.4,None,2025-09-08 18h58.24.525929 -0400,
2.166666666666667,0.0,,115,115,0,,,,,,,,,,p2,noss,0,left,1.1109700839733705,None,None,,,,,,,,,,,0,115,115,675,212.71175233402755,,,,,,,,,,,,,,,,,,,,,,,,,,,,,,,,,,,,,,,,,,,,,,,,,,,,,,,212.70820670900866,212.71175233402755,213.20406341698254,213.20406341698254,213.27562045899685,213.27562045899685,213.27562045899685,213.8269980000332,left,1.1109700839733705,None,213.82709854200948,213.82713545899605,None,,,,,,,,,,,,eli,0,2025-09-08_18h58.16.085,tilt_mocs,2024.2.4,None,2025-09-08 18h58.24.525929 -0400,
3.944444444444444,15.0,,116,116,0,,,,,,,,,,p1,poss,100,right,0.9225459169829264,None,None,,,,,,,,,,,0,116,116,176,213.83671654202044,,,,,,,,,,,,,,,,,,,,,,,,,,,,,,,,,,,,,,,,,,,,,,,,,,,,,,,213.82891587499762,213.83671654202044,214.3273343340261,214.3273343340261,214.40390558401123,214.40390558401123,214.40390558401123,214.76228695898317,right,0.9225459169829264,None,214.7624103340204,214.76245012501022,None,,,,,,,,,,,,eli,0,2025-09-08_18h58.16.085,tilt_mocs,2024.2.4,None,2025-09-08 18h58.24.525929 -0400,
4.444444444444445,15.0,,117,117,0,,,,,,,,,,p2,poss,100,left,0.9656790840090252,None,None,,,,,,,,,,,0,117,117,206,214.7704451670288,,,,,,,,,,,,,,,,,,,,,,,,,,,,,,,,,,,,,,,,,,,,,,,,,,,,,,,214.7642977500218,214.7704451670288,215.25962645898107,215.25962645898107,215.33740487502655,215.33740487502655,215.33740487502655,215.7394122920232,left,0.9656790840090252,None,215.7395184999914,215.73955562501214,None,,,,,,,,,,,,eli,0,2025-09-08_18h58.16.085,tilt_mocs,2024.2.4,None,2025-09-08 18h58.24.525929 -0400,
-5.361111111111111,-15.0,,118,118,0,,,,,,,,,,PSE,negs,100,left,0.8673480409779586,None,None,,,,,,,,,,,0,118,118,401,215.7474355000304,,,,,,,,,,,,,,,,,,,,,,,,,,,,,,,,,,,,,,,,,,,,,,,,,,,,,,,215.74154645903036,215.7474355000304,216.23808029200882,216.23808029200882,216.30947037501028,216.30947037501028,216.30947037501028,216.6224107919843,left,0.8673480409779586,None,216.6225079590222,216.62253862502985,None,,,,,,,,,,,,eli,0,2025-09-08_18h58.16.085,tilt_mocs,2024.2.4,None,2025-09-08 18h58.24.525929 -0400,
-4.361111111111111,-15.0,,119,119,0,,,,,,,,,,p2,negs,100,right,0.3450227500288747,None,None,,,,,,,,,,,0,119,119,512,216.6295025839936,,,,,,,,,,,,,,,,,,,,,,,,,,,,,,,,,,,,,,,,,,,,,,,,,,,,,,,216.6240062500001,216.6295025839936,,,,,,216.98827220901148,right,0.3450227500288747,None,216.9883402499836,216.9883668340044,None,,,,,,,,,,,,eli,0,2025-09-08_18h58.16.085,tilt_mocs,2024.2.4,None,2025-09-08 18h58.24.525929 -0400,
0.3333333333333332,0.0,,120,120,0,,,,,,,,,,m3,noss,0,left,1.0849133749725297,None,None,,,,,,,,,,,0,120,120,565,216.99399275000906,,,,,,,,,,,,,,,,,,,,,,,,,,,,,,,,,,,,,,,,,,,,,,,,,,,,,,,216.9896024169866,216.99399275000906,217.48690495901974,217.48690495901974,217.55680349998875,217.55680349998875,217.55680349998875,218.089205708995,left,1.0849133749725297,None,218.0892885000212,218.0893194170203,None,,,,,,,,,,,,eli,0,2025-09-08_18h58.16.085,tilt_mocs,2024.2.4,None,2025-09-08 18h58.24.525929 -0400,
1.6666666666666667,0.0,,121,121,0,,,,,,,,,,p1,noss,0,left,1.015398500021547,None,None,,,,,,,,,,,0,121,121,646,218.09628116700333,,,,,,,,,,,,,,,,,,,,,,,,,,,,,,,,,,,,,,,,,,,,,,,,,,,,,,,218.0907371250214,218.09628116700333,218.58735562500078,218.58735562500078,218.65812458400615,218.65812458400615,218.65812458400615,219.1230194590171,left,1.015398500021547,None,219.1231469589984,219.1231957920245,None,,,,,,,,,,,,eli,0,2025-09-08_18h58.16.085,tilt_mocs,2024.2.4,None,2025-09-08 18h58.24.525929 -0400,
3.444444444444444,15.0,,122,122,0,,,,,,,,,,PSE,poss,100,right,0.11575225001433864,None,None,,,,,,,,,,,0,122,122,140,219.13145174999954,,,,,,,,,,,,,,,,,,,,,,,,,,,,,,,,,,,,,,,,,,,,,,,,,,,,,,,219.12526887498097,219.13145174999954,,,,,,219.2566337090102,right,0.11575225001433864,None,219.25676845898852,219.2568126670085,None,,,,,,,,,,,,eli,0,2025-09-08_18h58.16.085,tilt_mocs,2024.2.4,None,2025-09-08 18h58.24.525929 -0400,
-6.861111111111111,-15.0,,123,123,0,,,,,,,,,,m3,negs,100,left,1.0869564170134254,None,None,,,,,,,,,,,0,123,123,290,219.26451979199192,,,,,,,,,,,,,,,,,,,,,,,,,,,,,,,,,,,,,,,,,,,,,,,,,,,,,,,219.25903337501222,219.26451979199192,219.75403108401224,219.75403108401224,219.8256830840255,219.8256830840255,219.8256830840255,220.35592962498777,left,1.0869564170134254,None,220.3560254999902,220.35606320900843,None,,,,,,,,,,,,eli,0,2025-09-08_18h58.16.085,tilt_mocs,2024.2.4,None,2025-09-08 18h58.24.525929 -0400,
1.944444444444444,15.0,,124,124,0,,,,,,,,,,m3,poss,100,left,0.979087374988012,None,None,,,,,,,,,,,0,124,124,37,220.36388283403357,,,,,,,,,,,,,,,,,,,,,,,,,,,,,,,,,,,,,,,,,,,,,,,,,,,,,,,220.35774408403086,220.36388283403357,220.85402916697785,220.85402916697785,220.92352366697742,220.92352366697742,220.92352366697742,221.35613099997863,left,0.979087374988012,None,221.3562334169983,221.35627104202285,None,,,,,,,,,,,,eli,0,2025-09-08_18h58.16.085,tilt_mocs,2024.2.4,None,2025-09-08 18h58.24.525929 -0400,
2.666666666666667,0.0,,125,125,0,,,,,,,,,,p3,noss,0,right,1.0422048749751411,None,None,,,,,,,,,,,0,125,125,691,221.364201208984,,,,,,,,,,,,,,,,,,,,,,,,,,,,,,,,,,,,,,,,,,,,,,,,,,,,,,,221.3580377920298,221.364201208984,221.85412583401194,221.85412583401194,221.9230317089823,221.9230317089823,221.9230317089823,222.40775266702985,right,1.0422048749751411,None,222.40779854200082,222.40781291702297,None,,,,,,,,,,,,eli,0,2025-09-08_18h58.16.085,tilt_mocs,2024.2.4,None,2025-09-08 18h58.24.525929 -0400,
1.6666666666666667,0.0,,126,126,0,,,,,,,,,,p1,noss,0,left,1.523877875006292,None,None,,,,,,,,,,,0,126,126,655,222.4196074170177,,,,,,,,,,,,,,,,,,,,,,,,,,,,,,,,,,,,,,,,,,,,,,,,,,,,,,,222.40850837499602,222.4196074170177,222.90405583399115,222.90405583399115,222.97339804202784,222.97339804202784,222.97339804202784,223.9547682920238,left,1.523877875006292,None,223.9548350420082,223.95485812501283,None,,,,,,,,,,,,eli,0,2025-09-08_18h58.16.085,tilt_mocs,2024.2.4,None,2025-09-08 18h58.24.525929 -0400,
-6.361111111111111,-15.0,,127,127,0,,,,,,,,,,m2,negs,100,right,None,None,None,,,,,,,,,,,0,127,127,335,223.96005920902826,,,,,,,,,,,,,,,,,,,,,,,,,,,,,,,,,,,,,,,,,,,,,,,,,,,,,,,223.9559387920308,223.96005920902826,,,,,,224.0885917500127,right,None,None,224.0886562920059,224.08868174999952,None,,,,,,,,,,,,eli,0,2025-09-08_18h58.16.085,tilt_mocs,2024.2.4,None,2025-09-08 18h58.24.525929 -0400,
2.444444444444444,15.0,,128,128,0,,,,,,,,,,m2,poss,100,left,1.130153582955245,None,None,,,,,,,,,,,0,128,128,73,224.09325450001052,,,,,,,,,,,,,,,,,,,,,,,,,,,,,,,,,,,,,,,,,,,,,,,,,,,,,,,224.0898370000068,224.09325450001052,224.58733287500218,224.58733287500218,224.6594979169895,224.6594979169895,224.6594979169895,225.22572854202008,left,1.130153582955245,None,225.22587125003338,225.22590204200242,None,,,,,,,,,,,,eli,0,2025-09-08_18h58.16.085,tilt_mocs,2024.2.4,None,2025-09-08 18h58.24.525929 -0400,
3.944444444444444,15.0,,129,129,0,,,,,,,,,,p1,poss,100,left,1.1309735410031863,None,None,,,,,,,,,,,0,129,129,180,225.2373677919968,,,,,,,,,,,,,,,,,,,,,,,,,,,,,,,,,,,,,,,,,,,,,,,,,,,,,,,225.22760162502527,225.2373677919968,225.72590395901352,225.72590395901352,225.80452316702576,225.80452316702576,225.80452316702576,226.37245658400934,left,1.1309735410031863,None,226.37255895900307,226.37259662500583,None,,,,,,,,,,,,eli,0,2025-09-08_18h58.16.085,tilt_mocs,2024.2.4,None,2025-09-08 18h58.24.525929 -0400,
-5.361111111111111,-15.0,,130,130,0,,,,,,,,,,PSE,negs,100,left,0.9315679999999702,None,None,,,,,,,,,,,0,130,130,433,226.38019362499472,,,,,,,,,,,,,,,,,,,,,,,,,,,,,,,,,,,,,,,,,,,,,,,,,,,,,,,226.3743288340047,226.38019362499472,226.87080970901297,226.87080970901297,226.94016804202693,226.94016804202693,226.94016804202693,227.32265124999685,left,0.9315679999999702,None,227.32274779200088,227.32278454198968,None,,,,,,,,,,,,eli,0,2025-09-08_18h58.16.085,tilt_mocs,2024.2.4,None,2025-09-08 18h58.24.525929 -0400,
2.666666666666667,0.0,,131,131,0,,,,,,,,,,p3,noss,0,right,0.9429891660111025,None,None,,,,,,,,,,,0,131,131,694,227.32946204202017,,,,,,,,,,,,,,,,,,,,,,,,,,,,,,,,,,,,,,,,,,,,,,,,,,,,,,,227.32444466702873,227.32946204202017,227.82074375002412,227.82074375002412,227.89216758398106,227.89216758398106,227.89216758398106,228.281208875007,right,0.9429891660111025,None,228.28131470899098,228.2813643750269,None,,,,,,,,,,,,eli,0,2025-09-08_18h58.16.085,tilt_mocs,2024.2.4,None,2025-09-08 18h58.24.525929 -0400,
-6.361111111111111,-15.0,,132,132,0,,,,,,,,,,m2,negs,100,left,0.9697915419819765,None,None,,,,,,,,,,,0,132,132,344,228.2866762090125,,,,,,,,,,,,,,,,,,,,,,,,,,,,,,,,,,,,,,,,,,,,,,,,,,,,,,,228.28316799999448,228.2866762090125,228.77664729201933,228.77664729201933,228.85427070898004,228.85427070898004,228.85896729200613,229.26051016699057,left,0.9697915419819765,None,229.26061191700865,229.26065000001108,None,,,,,,,,,,,,eli,0,2025-09-08_18h58.16.085,tilt_mocs,2024.2.4,None,2025-09-08 18h58.24.525929 -0400,
-4.861111111111111,-15.0,,133,133,0,,,,,,,,,,p1,negs,100,right,1.1138845419627614,None,None,,,,,,,,,,,0,133,133,440,229.26985054201214,,,,,,,,,,,,,,,,,,,,,,,,,,,,,,,,,,,,,,,,,,,,,,,,,,,,,,,229.26242820901098,229.26985054201214,229.76106341701234,229.76106341701234,229.83746533398516,229.83746533398516,229.83746533398516,230.38916800002335,right,1.1138845419627614,None,230.38926129200263,230.38930799998343,None,,,,,,,,,,,,eli,0,2025-09-08_18h58.16.085,tilt_mocs,2024.2.4,None,2025-09-08 18h58.24.525929 -0400,
2.944444444444444,15.0,,134,134,0,,,,,,,,,,m1,poss,100,left,0.914914041000884,None,None,,,,,,,,,,,0,134,134,100,230.3970127920038,,,,,,,,,,,,,,,,,,,,,,,,,,,,,,,,,,,,,,,,,,,,,,,,,,,,,,,230.39100212499034,230.3970127920038,230.8874205420143,230.8874205420143,230.95595029200194,230.95595029200194,230.95595029200194,231.32282950001536,left,0.914914041000884,None,231.32295354199596,231.3230010420084,None,,,,,,,,,,,,eli,0,2025-09-08_18h58.16.085,tilt_mocs,2024.2.4,None,2025-09-08 18h58.24.525929 -0400,
4.944444444444445,15.0,,135,135,0,,,,,,,,,,p3,poss,100,right,0.9989712500246242,None,None,,,,,,,,,,,0,135,135,272,231.3282915839809,,,,,,,,,,,,,,,,,,,,,,,,,,,,,,,,,,,,,,,,,,,,,,,,,,,,,,,231.3238806250156,231.3282915839809,231.8210875840159,231.8210875840159,231.89097458397737,231.89097458397737,231.89097458397737,232.33769800001755,right,0.9989712500246242,None,232.3377887919778,232.33782487502322,None,,,,,,,,,,,,eli,0,2025-09-08_18h58.16.085,tilt_mocs,2024.2.4,None,2025-09-08 18h58.24.525929 -0400,
-4.861111111111111,-15.0,,136,136,0,,,,,,,,,,p1,negs,100,left,0.8736537499935366,None,None,,,,,,,,,,,0,136,136,466,232.34263274999103,,,,,,,,,,,,,,,,,,,,,,,,,,,,,,,,,,,,,,,,,,,,,,,,,,,,,,,232.33938441699138,232.34263274999103,232.82791187497787,232.82791187497787,232.9039512500167,232.9039512500167,232.90728254202986,233.22271850000834,left,0.8736537499935366,None,233.2228148750146,233.22285199997714,None,,,,,,,,,,,,eli,0,2025-09-08_18h58.16.085,tilt_mocs,2024.2.4,None,2025-09-08 18h58.24.525929 -0400,
4.944444444444445,15.0,,137,137,0,,,,,,,,,,p3,poss,100,left,0.8892539590015076,None,None,,,,,,,,,,,0,137,137,257,233.23029112501536,,,,,,,,,,,,,,,,,,,,,,,,,,,,,,,,,,,,,,,,,,,,,,,,,,,,,,,233.2246340420097,233.23029112501536,233.7206955840229,233.7206955840229,233.79303416702896,233.79303416702896,233.79303416702896,234.12341208400903,left,0.8892539590015076,None,234.12347816699184,234.12349287502002,None,,,,,,,,,,,,eli,0,2025-09-08_18h58.16.085,tilt_mocs,2024.2.4,None,2025-09-08 18h58.24.525929 -0400,
0.3333333333333332,0.0,,138,138,0,,,,,,,,,,m3,noss,0,right,0.9446830830420367,None,None,,,,,,,,,,,0,138,138,562,234.12813800002914,,,,,,,,,,,,,,,,,,,,,,,,,,,,,,,,,,,,,,,,,,,,,,,,,,,,,,,234.12425500003155,234.12813800002914,234.62067516701063,234.62067516701063,234.6925842500059,234.6925842500059,234.6925842500059,235.0751447090297,right,0.9446830830420367,None,235.0752158749965,235.0752422499936,None,,,,,,,,,,,,eli,0,2025-09-08_18h58.16.085,tilt_mocs,2024.2.4,None,2025-09-08 18h58.24.525929 -0400,
2.444444444444444,15.0,,139,139,0,,,,,,,,,,m2,poss,100,left,1.0067820829572156,None,None,,,,,,,,,,,0,139,139,41,235.0874091250007,,,,,,,,,,,,,,,,,,,,,,,,,,,,,,,,,,,,,,,,,,,,,,,,,,,,,,,235.0764656669926,235.0874091250007,235.57493595901178,235.57493595901178,235.63999483402586,235.63999483402586,235.65404258400667,236.10551408398896,left,1.0067820829572156,None,236.1055969169829,236.1056276250165,None,,,,,,,,,,,,eli,0,2025-09-08_18h58.16.085,tilt_mocs,2024.2.4,None,2025-09-08 18h58.24.525929 -0400,
-4.361111111111111,-15.0,,140,140,0,,,,,,,,,,p2,negs,100,left,1.0306281659868546,None,None,,,,,,,,,,,0,140,140,505,236.11254400003236,,,,,,,,,,,,,,,,,,,,,,,,,,,,,,,,,,,,,,,,,,,,,,,,,,,,,,,236.1070143749821,236.11254400003236,236.60413195902947,236.60413195902947,236.67368170898408,236.67368170898408,236.67368170898408,237.15589245897718,left,1.0306281659868546,None,237.15598425001372,237.15602041699458,None,,,,,,,,,,,,eli,0,2025-09-08_18h58.16.085,tilt_mocs,2024.2.4,None,2025-09-08 18h58.24.525929 -0400,
4.444444444444445,15.0,,141,141,0,,,,,,,,,,p2,poss,100,right,1.019142584002111,None,None,,,,,,,,,,,0,141,141,229,237.16416108398698,,,,,,,,,,,,,,,,,,,,,,,,,,,,,,,,,,,,,,,,,,,,,,,,,,,,,,,237.1577542499872,237.16416108398698,237.6540562500013,237.6540562500013,237.7243445420172,237.7243445420172,237.7243445420172,238.18921749998117,right,1.019142584002111,None,238.18931554199662,238.18935254198732,None,,,,,,,,,,,,eli,0,2025-09-08_18h58.16.085,tilt_mocs,2024.2.4,None,2025-09-08 18h58.24.525929 -0400,
-5.361111111111111,-15.0,,142,142,0,,,,,,,,,,PSE,negs,100,left,0.9233437909861095,None,None,,,,,,,,,,,0,142,142,413,238.19692116702208,,,,,,,,,,,,,,,,,,,,,,,,,,,,,,,,,,,,,,,,,,,,,,,,,,,,,,,238.19107783399522,238.19692116702208,238.68711670901394,238.68711670901394,238.75947929202812,238.75947929202812,238.75947929202812,239.12277195899514,left,0.9233437909861095,None,239.12286537501495,239.12290179199772,None,,,,,,,,,,,,eli,0,2025-09-08_18h58.16.085,tilt_mocs,2024.2.4,None,2025-09-08 18h58.24.525929 -0400,
-4.361111111111111,-15.0,,143,143,0,,,,,,,,,,p2,negs,100,right,1.021168957988266,None,None,,,,,,,,,,,0,143,143,496,239.13009262498235,,,,,,,,,,,,,,,,,,,,,,,,,,,,,,,,,,,,,,,,,,,,,,,,,,,,,,,239.124507792003,239.13009262498235,239.62054775003344,239.62054775003344,239.6921164590167,239.6921164590167,239.6921164590167,240.15606262499932,right,1.021168957988266,None,240.15616295899963,240.15620054199826,None,,,,,,,,,,,,eli,0,2025-09-08_18h58.16.085,tilt_mocs,2024.2.4,None,2025-09-08 18h58.24.525929 -0400,
4.944444444444445,15.0,,144,144,0,,,,,,,,,,p3,poss,100,left,0.9560821250197478,None,None,,,,,,,,,,,0,144,144,249,240.16366470901994,,,,,,,,,,,,,,,,,,,,,,,,,,,,,,,,,,,,,,,,,,,,,,,,,,,,,,,240.1579720840091,240.16366470901994,240.654080584005,240.654080584005,240.72631195897702,240.72631195897702,240.72631195897702,241.12238966702716,left,0.9560821250197478,None,241.1224690839881,241.12250350002432,None,,,,,,,,,,,,eli,0,2025-09-08_18h58.16.085,tilt_mocs,2024.2.4,None,2025-09-08 18h58.24.525929 -0400,
-4.361111111111111,-15.0,,145,145,0,,,,,,,,,,p2,negs,100,left,1.1339075000141747,None,None,,,,,,,,,,,0,145,145,488,241.1289577090065,,,,,,,,,,,,,,,,,,,,,,,,,,,,,,,,,,,,,,,,,,,,,,,,,,,,,,,241.12387720902916,241.1289577090065,241.6206922919955,241.6206922919955,241.6908594170236,241.6908594170236,241.6908594170236,242.2726222500205,left,1.1339075000141747,None,242.27273020899156,242.27276870899368,None,,,,,,,,,,,,eli,0,2025-09-08_18h58.16.085,tilt_mocs,2024.2.4,None,2025-09-08 18h58.24.525929 -0400,
1.944444444444444,15.0,,146,146,0,,,,,,,,,,m3,poss,100,left,1.2094854169990867,None,None,,,,,,,,,,,0,146,146,14,242.2807559170178,,,,,,,,,,,,,,,,,,,,,,,,,,,,,,,,,,,,,,,,,,,,,,,,,,,,,,,242.27458654198563,242.2807559170178,242.77080829202896,242.77080829202896,242.84230245900108,242.84230245900108,242.84230245900108,243.4915939589846,left,1.2094854169990867,None,243.49165883398382,243.49168187502073,None,,,,,,,,,,,,eli,0,2025-09-08_18h58.16.085,tilt_mocs,2024.2.4,None,2025-09-08 18h58.24.525929 -0400,
-4.861111111111111,-15.0,,147,147,0,,,,,,,,,,p1,negs,100,left,0.9279657920124009,None,None,,,,,,,,,,,0,147,147,476,243.50397875002818,,,,,,,,,,,,,,,,,,,,,,,,,,,,,,,,,,,,,,,,,,,,,,,,,,,,,,,243.4927771249786,243.50397875002818,243.9916573340306,243.9916573340306,244.07086908398196,244.07086908398196,244.07086908398196,244.43875395902433,left,0.9279657920124009,None,244.43881625001086,244.43883850000566,None,,,,,,,,,,,,eli,0,2025-09-08_18h58.16.085,tilt_mocs,2024.2.4,None,2025-09-08 18h58.24.525929 -0400,
-4.861111111111111,-15.0,,148,148,0,,,,,,,,,,p1,negs,100,left,0.9133487079525366,None,None,,,,,,,,,,,0,148,148,445,244.44499983399874,,,,,,,,,,,,,,,,,,,,,,,,,,,,,,,,,,,,,,,,,,,,,,,,,,,,,,,244.4399002920254,244.44499983399874,244.93649024999468,244.93649024999468,245.00622591702268,245.00622591702268,245.00622591702268,245.37173349998193,left,0.9133487079525366,None,245.37186116701923,245.3718992919894,None,,,,,,,,,,,,eli,0,2025-09-08_18h58.16.085,tilt_mocs,2024.2.4,None,2025-09-08 18h58.24.525929 -0400,
3.444444444444444,15.0,,149,149,0,,,,,,,,,,PSE,poss,100,right,1.0857719170162454,None,None,,,,,,,,,,,0,149,149,153,245.37694979202934,,,,,,,,,,,,,,,,,,,,,,,,,,,,,,,,,,,,,,,,,,,,,,,,,,,,,,,245.37359020899748,245.37694979202934,245.871052625007,245.871052625007,245.94003316701856,245.94003316701856,245.94003316701856,246.47112887498224,right,1.0857719170162454,None,246.47118887503166,246.4712109999964,None,,,,,,,,,,,,eli,0,2025-09-08_18h58.16.085,tilt_mocs,2024.2.4,None,2025-09-08 18h58.24.525929 -0400,
-5.361111111111111,-15.0,,150,150,0,,,,,,,,,,PSE,negs,100,left,1.1476285840035416,None,None,,,,,,,,,,,0,150,150,439,246.47594016703079,,,,,,,,,,,,,,,,,,,,,,,,,,,,,,,,,,,,,,,,,,,,,,,,,,,,,,,246.47227608400863,246.47594016703079,246.9699770840234,246.9699770840234,247.04035458399449,247.04035458399449,247.04035458399449,247.62550941703375,left,1.1476285840035416,None,247.62562100001378,247.62565883400384,None,,,,,,,,,,,,eli,0,2025-09-08_18h58.16.085,tilt_mocs,2024.2.4,None,2025-09-08 18h58.24.525929 -0400,
2.944444444444444,15.0,,151,151,0,,,,,,,,,,m1,poss,100,right,0.8186627919785678,None,None,,,,,,,,,,,0,151,151,98,247.63736875000177,,,,,,,,,,,,,,,,,,,,,,,,,,,,,,,,,,,,,,,,,,,,,,,,,,,,,,,247.62747562502045,247.63736875000177,248.12548941699788,248.12548941699788,248.20441679202486,248.20441679202486,248.20441679202486,248.45747412502533,right,0.8186627919785678,None,248.45753333403263,248.45755400002236,None,,,,,,,,,,,,eli,0,2025-09-08_18h58.16.085,tilt_mocs,2024.2.4,None,2025-09-08 18h58.24.525929 -0400,
4.444444444444445,15.0,,152,152,0,,,,,,,,,,p2,poss,100,left,0.003153083031065762,None,None,,,,,,,,,,,0,152,152,221,248.4697369170026,,,,,,,,,,,,,,,,,,,,,,,,,,,,,,,,,,,,,,,,,,,,,,,,,,,,,,,248.4584920000052,248.4697369170026,,,,,,248.4741650840151,left,0.003153083031065762,None,248.47421237500384,248.4742318749777,None,,,,,,,,,,,,eli,0,2025-09-08_18h58.16.085,tilt_mocs,2024.2.4,None,2025-09-08 18h58.24.525929 -0400,
2.444444444444444,15.0,,153,153,0,,,,,,,,,,m2,poss,100,right,0.8976690420531668,None,None,,,,,,,,,,,0,153,153,60,248.4864272500272,,,,,,,,,,,,,,,,,,,,,,,,,,,,,,,,,,,,,,,,,,,,,,,,,,,,,,,248.47514516703086,248.4864272500272,248.97075804200722,248.97075804200722,249.04058383399388,249.04058383399388,249.04058383399388,249.38979712501168,right,0.8976690420531668,None,249.38990920898505,249.3899471249897,None,,,,,,,,,,,,eli,0,2025-09-08_18h58.16.085,tilt_mocs,2024.2.4,None,2025-09-08 18h58.24.525929 -0400,
-4.861111111111111,-15.0,,154,154,0,,,,,,,,,,p1,negs,100,left,0.0013390000094659626,None,None,,,,,,,,,,,0,154,154,459,249.39781308401143,,,,,,,,,,,,,,,,,,,,,,,,,,,,,,,,,,,,,,,,,,,,,,,,,,,,,,,249.39174937503412,249.39781308401143,,,,,,249.40511950000655,left,0.0013390000094659626,None,249.40518354199594,249.4052088339813,None,,,,,,,,,,,,eli,0,2025-09-08_18h58.16.085,tilt_mocs,2024.2.4,None,2025-09-08 18h58.24.525929 -0400,
-4.861111111111111,-15.0,,155,155,0,,,,,,,,,,p1,negs,100,left,0.8788021249929443,None,None,,,,,,,,,,,0,155,155,458,249.41045183403185,,,,,,,,,,,,,,,,,,,,,,,,,,,,,,,,,,,,,,,,,,,,,,,,,,,,,,,249.40638050000416,249.41045183403185,249.89426141697913,249.89426141697913,249.97045025002444,249.97045025002444,249.973181459005,250.29256233398337,left,0.8788021249929443,None,250.29265900002792,250.29269579198444,None,,,,,,,,,,,,eli,0,2025-09-08_18h58.16.085,tilt_mocs,2024.2.4,None,2025-09-08 18h58.24.525929 -0400,
3.444444444444444,15.0,,156,156,0,,,,,,,,,,PSE,poss,100,left,1.2799007089924999,None,None,,,,,,,,,,,0,156,156,123,250.3040207090089,,,,,,,,,,,,,,,,,,,,,,,,,,,,,,,,,,,,,,,,,,,,,,,,,,,,,,,250.29448587499792,250.3040207090089,250.79356008401373,250.79356008401373,250.8709331669961,250.8709331669961,250.8709331669961,251.58899700001348,left,1.2799007089924999,None,251.5890809170087,251.58911183400778,None,,,,,,,,,,,,eli,0,2025-09-08_18h58.16.085,tilt_mocs,2024.2.4,None,2025-09-08 18h58.24.525929 -0400,
-6.861111111111111,-15.0,,157,157,0,,,,,,,,,,m3,negs,100,left,0.8987260420108214,None,None,,,,,,,,,,,0,157,157,300,251.59608579199994,,,,,,,,,,,,,,,,,,,,,,,,,,,,,,,,,,,,,,,,,,,,,,,,,,,,,,,251.59054424997885,251.59608579199994,252.08734450000338,252.08734450000338,252.15956749999896,252.15956749999896,252.15956749999896,252.50466824998148,left,0.8987260420108214,None,252.50473883398809,252.50476466701366,None,,,,,,,,,,,,eli,0,2025-09-08_18h58.16.085,tilt_mocs,2024.2.4,None,2025-09-08 18h58.24.525929 -0400,
4.444444444444445,15.0,,158,158,0,,,,,,,,,,p2,poss,100,left,0.8091276659979485,None,None,,,,,,,,,,,0,158,158,233,252.5102698749979,,,,,,,,,,,,,,,,,,,,,,,,,,,,,,,,,,,,,,,,,,,,,,,,,,,,,,,252.50598091701977,252.5102698749979,252.99168329202803,252.99168329202803,253.070765417011,253.070765417011,253.07368358399253,253.32310904201586,left,0.8091276659979485,None,253.32322866702452,253.32327616697876,None,,,,,,,,,,,,eli,0,2025-09-08_18h58.16.085,tilt_mocs,2024.2.4,None,2025-09-08 18h58.24.525929 -0400,
-4.361111111111111,-15.0,,159,159,0,,,,,,,,,,p2,negs,100,left,0.7632650419836864,None,None,,,,,,,,,,,0,159,159,511,253.33097345900023,,,,,,,,,,,,,,,,,,,,,,,,,,,,,,,,,,,,,,,,,,,,,,,,,,,,,,,253.32503050001105,253.33097345900023,253.82067358400673,253.82067358400673,253.892589916999,253.892589916999,253.892589916999,254.1056092089857,left,0.7632650419836864,None,254.10569229198154,254.10572283400688,None,,,,,,,,,,,,eli,0,2025-09-08_18h58.16.085,tilt_mocs,2024.2.4,None,2025-09-08 18h58.24.525929 -0400,
0.1666666666666667,0.0,,160,160,0,,,,,,,,,,m2,noss,0,left,0.814572292030789,None,None,,,,,,,,,,,0,160,160,596,254.11278791702352,,,,,,,,,,,,,,,,,,,,,,,,,,,,,,,,,,,,,,,,,,,,,,,,,,,,,,,254.10712066700216,254.11278791702352,254.60380012501264,254.60380012501264,254.67440783401253,254.67440783401253,254.67440783401253,254.93760116701014,left,0.814572292030789,None,254.93766437500017,254.93768737500068,None,,,,,,,,,,,,eli,0,2025-09-08_18h58.16.085,tilt_mocs,2024.2.4,None,2025-09-08 18h58.24.525929 -0400,
3.944444444444444,15.0,,161,161,0,,,,,,,,,,p1,poss,100,left,0.7528007499640808,None,None,,,,,,,,,,,0,161,161,170,254.9422882089857,,,,,,,,,,,,,,,,,,,,,,,,,,,,,,,,,,,,,,,,,,,,,,,,,,,,,,,254.93871662497986,254.9422882089857,255.4246199170011,255.4246199170011,255.50345266697695,255.50345266697695,255.50620562501717,255.70597758400254,left,0.7528007499640808,None,255.70602962502744,255.70604374998948,None,,,,,,,,,,,,eli,0,2025-09-08_18h58.16.085,tilt_mocs,2024.2.4,None,2025-09-08 18h58.24.525929 -0400,
0.3333333333333332,0.0,,162,162,0,,,,,,,,,,m3,noss,0,left,0.808854958973825,None,None,,,,,,,,,,,0,162,162,573,255.71068604203174,,,,,,,,,,,,,,,,,,,,,,,,,,,,,,,,,,,,,,,,,,,,,,,,,,,,,,,255.70672762498725,255.71068604203174,256.2040761670214,256.2040761670214,256.2760557500296,256.2760557500296,256.2760557500296,256.52201679203426,left,0.808854958973825,None,256.5220886670286,256.52211520902347,None,,,,,,,,,,,,eli,0,2025-09-08_18h58.16.085,tilt_mocs,2024.2.4,None,2025-09-08 18h58.24.525929 -0400,
2.444444444444444,15.0,,163,163,0,,,,,,,,,,m2,poss,100,left,0.7650212500011548,None,None,,,,,,,,,,,0,163,163,75,256.52856424998026,,,,,,,,,,,,,,,,,,,,,,,,,,,,,,,,,,,,,,,,,,,,,,,,,,,,,,,256.52336070901947,256.52856424998026,257.0198975839885,257.0198975839885,257.0900036250241,257.0900036250241,257.0900036250241,257.30583733401727,left,0.7650212500011548,None,257.3059341250337,257.30597195902374,None,,,,,,,,,,,,eli,0,2025-09-08_18h58.16.085,tilt_mocs,2024.2.4,None,2025-09-08 18h58.24.525929 -0400,
4.944444444444445,15.0,,164,164,0,,,,,,,,,,p3,poss,100,left,0.8452483749715611,None,None,,,,,,,,,,,0,164,164,268,257.3136025419808,,,,,,,,,,,,,,,,,,,,,,,,,,,,,,,,,,,,,,,,,,,,,,,,,,,,,,,257.30763633397873,257.3136025419808,257.80431687500095,257.80431687500095,257.87544874998275,257.87544874998275,257.87544874998275,258.1609932089923,left,0.8452483749715611,None,258.1610889590229,258.16112637502374,None,,,,,,,,,,,,eli,0,2025-09-08_18h58.16.085,tilt_mocs,2024.2.4,None,2025-09-08 18h58.24.525929 -0400,
-6.361111111111111,-15.0,,165,165,0,,,,,,,,,,m2,negs,100,left,1.0207554170046933,None,None,,,,,,,,,,,0,165,165,351,258.16977170901373,,,,,,,,,,,,,,,,,,,,,,,,,,,,,,,,,,,,,,,,,,,,,,,,,,,,,,,258.16287195897894,258.16977170901373,258.6590763339773,258.6590763339773,258.73727333400166,258.73727333400166,258.73727333400166,259.2049522920279,left,1.0207554170046933,None,259.2050350839854,259.20506616699276,None,,,,,,,,,,,,eli,0,2025-09-08_18h58.16.085,tilt_mocs,2024.2.4,None,2025-09-08 18h58.24.525929 -0400,
-4.861111111111111,-15.0,,166,166,0,,,,,,,,,,p1,negs,100,left,0.9417737919720821,None,None,,,,,,,,,,,0,166,166,475,259.2096327500185,,,,,,,,,,,,,,,,,,,,,,,,,,,,,,,,,,,,,,,,,,,,,,,,,,,,,,,259.2064435840002,259.2096327500185,259.7039084589924,259.7039084589924,259.776522500033,259.776522500033,259.776522500033,260.156012499996,left,0.9417737919720821,None,260.1561092089978,260.15614662499866,None,,,,,,,,,,,,eli,0,2025-09-08_18h58.16.085,tilt_mocs,2024.2.4,None,2025-09-08 18h58.24.525929 -0400,
3.444444444444444,15.0,,167,167,0,,,,,,,,,,PSE,poss,100,left,1.011547292000614,None,None,,,,,,,,,,,0,167,167,120,260.1629417089862,,,,,,,,,,,,,,,,,,,,,,,,,,,,,,,,,,,,,,,,,,,,,,,,,,,,,,,260.15785904199583,260.1629417089862,260.6537135419785,260.6537135419785,260.724327834032,260.724327834032,260.724327834032,261.1779882920091,left,1.011547292000614,None,261.1780901250313,261.17812770901946,None,,,,,,,,,,,,eli,0,2025-09-08_18h58.16.085,tilt_mocs,2024.2.4,None,2025-09-08 18h58.24.525929 -0400,
1.944444444444444,15.0,,168,168,0,,,,,,,,,,m3,poss,100,left,1.3485086250002496,None,None,,,,,,,,,,,0,168,168,16,261.18650195898954,,,,,,,,,,,,,,,,,,,,,,,,,,,,,,,,,,,,,,,,,,,,,,,,,,,,,,,261.1799591250019,261.18650195898954,261.6759276249795,261.6759276249795,261.7539414589992,261.7539414589992,261.7539414589992,262.5386009590002,left,1.3485086250002496,None,262.5386803339934,262.538708499982,None,,,,,,,,,,,,eli,0,2025-09-08_18h58.16.085,tilt_mocs,2024.2.4,None,2025-09-08 18h58.24.525929 -0400,
2.166666666666667,0.0,,169,169,0,,,,,,,,,,p2,noss,0,left,1.04573116597021,None,None,,,,,,,,,,,0,169,169,673,262.54456208401825,,,,,,,,,,,,,,,,,,,,,,,,,,,,,,,,,,,,,,,,,,,,,,,,,,,,,,,262.5399507919792,262.54456208401825,263.03698400000576,263.03698400000576,263.10722029203316,263.10722029203316,263.10722029203316,263.6053667090018,left,1.04573116597021,None,263.60545266699046,263.60548404202564,None,,,,,,,,,,,,eli,0,2025-09-08_18h58.16.085,tilt_mocs,2024.2.4,None,2025-09-08 18h58.24.525929 -0400,
1.1666666666666667,0.0,,170,170,0,,,,,,,,,,PSE,noss,0,right,0.8499921670299955,None,None,,,,,,,,,,,0,170,170,634,263.612216916983,,,,,,,,,,,,,,,,,,,,,,,,,,,,,,,,,,,,,,,,,,,,,,,,,,,,,,,263.6069183750078,263.612216916983,264.10395245900145,264.10395245900145,264.17424508399563,264.17424508399563,264.17424508399563,264.472106250003,right,0.8499921670299955,None,264.47218179202173,264.472216958995,None,,,,,,,,,,,,eli,0,2025-09-08_18h58.16.085,tilt_mocs,2024.2.4,None,2025-09-08 18h58.24.525929 -0400,
2.444444444444444,15.0,,171,171,0,,,,,,,,,,m2,poss,100,right,0.9938021249836311,None,None,,,,,,,,,,,0,171,171,53,264.47865212499164,,,,,,,,,,,,,,,,,,,,,,,,,,,,,,,,,,,,,,,,,,,,,,,,,,,,,,,264.4735181250144,264.47865212499164,264.96970658400096,264.96970658400096,265.0398905000184,265.0398905000184,265.0398905000184,265.4742560000159,right,0.9938021249836311,None,265.4743185840198,265.4743413749966,None,,,,,,,,,,,,eli,0,2025-09-08_18h58.16.085,tilt_mocs,2024.2.4,None,2025-09-08 18h58.24.525929 -0400,
3.944444444444444,15.0,,172,172,0,,,,,,,,,,p1,poss,100,left,0.8649310839828104,None,None,,,,,,,,,,,0,172,172,166,265.4863418340101,,,,,,,,,,,,,,,,,,,,,,,,,,,,,,,,,,,,,,,,,,,,,,,,,,,,,,,265.4753839590121,265.4863418340101,265.9735718750162,265.9735718750162,266.03994770901045,266.03994770901045,266.03994770901045,266.3561277090339,left,0.8649310839828104,None,266.3562379999785,266.3562757920008,None,,,,,,,,,,,,eli,0,2025-09-08_18h58.16.085,tilt_mocs,2024.2.4,None,2025-09-08 18h58.24.525929 -0400,
-6.361111111111111,-15.0,,173,173,0,,,,,,,,,,m2,negs,100,right,0.9306890410371125,None,None,,,,,,,,,,,0,173,173,330,266.3637610420119,,,,,,,,,,,,,,,,,,,,,,,,,,,,,,,,,,,,,,,,,,,,,,,,,,,,,,,266.3581004589796,266.3637610420119,266.853938833985,266.853938833985,266.92291545902845,266.92291545902845,266.92291545902845,267.30632874998264,right,0.9306890410371125,None,267.30642812501173,267.30647100001806,None,,,,,,,,,,,,eli,0,2025-09-08_18h58.16.085,tilt_mocs,2024.2.4,None,2025-09-08 18h58.24.525929 -0400,
-5.361111111111111,-15.0,,174,174,0,,,,,,,,,,PSE,negs,100,right,0.9963636249885894,None,None,,,,,,,,,,,0,174,174,426,267.31424625002546,,,,,,,,,,,,,,,,,,,,,,,,,,,,,,,,,,,,,,,,,,,,,,,,,,,,,,,267.3081864590058,267.31424625002546,267.80398429202614,267.80398429202614,267.8760691250209,267.8760691250209,267.8760691250209,268.3224696670077,right,0.9963636249885894,None,268.32256391702686,268.3226005419856,None,,,,,,,,,,,,eli,0,2025-09-08_18h58.16.085,tilt_mocs,2024.2.4,None,2025-09-08 18h58.24.525929 -0400,
-4.361111111111111,-15.0,,175,175,0,,,,,,,,,,p2,negs,100,right,0.9893112080171704,None,None,,,,,,,,,,,0,175,175,506,268.33027458400466,,,,,,,,,,,,,,,,,,,,,,,,,,,,,,,,,,,,,,,,,,,,,,,,,,,,,,,268.32429675001185,268.33027458400466,268.8207032920327,268.8207032920327,268.8926235419931,268.8926235419931,268.8926235419931,269.3225742090144,right,0.9893112080171704,None,269.32266549998894,269.322701334022,None,,,,,,,,,,,,eli,0,2025-09-08_18h58.16.085,tilt_mocs,2024.2.4,None,2025-09-08 18h58.24.525929 -0400,
-4.861111111111111,-15.0,,176,176,0,,,,,,,,,,p1,negs,100,left,0.8281237499904819,None,None,,,,,,,,,,,0,176,176,442,269.3304483339889,,,,,,,,,,,,,,,,,,,,,,,,,,,,,,,,,,,,,,,,,,,,,,,,,,,,,,,269.3243875420303,269.3304483339889,269.82060600002296,269.82060600002296,269.8927104169852,269.8927104169852,269.8927104169852,270.17206304200226,left,0.8281237499904819,None,270.17215929197846,270.1721968339989,None,,,,,,,,,,,,eli,0,2025-09-08_18h58.16.085,tilt_mocs,2024.2.4,None,2025-09-08 18h58.24.525929 -0400,
4.944444444444445,15.0,,177,177,0,,,,,,,,,,p3,poss,100,left,1.0428720420459285,None,None,,,,,,,,,,,0,177,177,265,270.1798527499777,,,,,,,,,,,,,,,,,,,,,,,,,,,,,,,,,,,,,,,,,,,,,,,,,,,,,,,270.17385579203255,270.1798527499777,270.6706754590268,270.6706754590268,270.74309008399723,270.74309008399723,270.74309008399723,271.2255005000043,left,1.0428720420459285,None,271.2256047499832,271.2256424999796,None,,,,,,,,,,,,eli,0,2025-09-08_18h58.16.085,tilt_mocs,2024.2.4,None,2025-09-08 18h58.24.525929 -0400,
2.166666666666667,0.0,,178,178,0,,,,,,,,,,p2,noss,0,left,1.073827332991641,None,None,,,,,,,,,,,0,178,178,667,271.2373087499873,,,,,,,,,,,,,,,,,,,,,,,,,,,,,,,,,,,,,,,,,,,,,,,,,,,,,,,271.2273973340052,271.2373087499873,271.7264689169824,271.7264689169824,271.8042084170156,271.8042084170156,271.8042084170156,272.323321459,left,1.073827332991641,None,272.32347612502053,272.32359854201786,None,,,,,,,,,,,,eli,0,2025-09-08_18h58.16.085,tilt_mocs,2024.2.4,None,2025-09-08 18h58.24.525929 -0400,
2.944444444444444,15.0,,179,179,0,,,,,,,,,,m1,poss,100,left,1.8057298340136185,None,None,,,,,,,,,,,0,179,179,107,272.3291345839971,,,,,,,,,,,,,,,,,,,,,,,,,,,,,,,,,,,,,,,,,,,,,,,,,,,,,,,272.3246419170173,272.3291345839971,272.82065100001637,272.82065100001637,272.8931244590203,272.8931244590203,272.8931244590203,274.13917979202233,left,1.8057298340136185,None,274.1393107920303,274.13934962498024,None,,,,,,,,,,,,eli,0,2025-09-08_18h58.16.085,tilt_mocs,2024.2.4,None,2025-09-08 18h58.24.525929 -0400,
3.944444444444444,15.0,,180,180,0,,,,,,,,,,p1,poss,100,right,None,None,None,,,,,,,,,,,0,180,180,160,274.1482125420007,,,,,,,,,,,,,,,,,,,,,,,,,,,,,,,,,,,,,,,,,,,,,,,,,,,,,,,274.1411749590188,274.1482125420007,,,,,,274.3090261250036,right,None,None,274.30911887501134,274.3091567499796,None,,,,,,,,,,,,eli,0,2025-09-08_18h58.16.085,tilt_mocs,2024.2.4,None,2025-09-08 18h58.24.525929 -0400,
3.944444444444444,15.0,,181,181,0,,,,,,,,,,p1,poss,100,right,1.1927284999983385,None,None,,,,,,,,,,,0,181,181,165,274.3203339999891,,,,,,,,,,,,,,,,,,,,,,,,,,,,,,,,,,,,,,,,,,,,,,,,,,,,,,,274.31071512500057,274.3203339999891,274.80403220898006,274.80403220898006,274.87428370898124,274.87428370898124,274.8873018340091,275.5145956670167,right,1.1927284999983385,None,275.5146563749877,275.51467854197836,None,,,,,,,,,,,,eli,0,2025-09-08_18h58.16.085,tilt_mocs,2024.2.4,None,2025-09-08 18h58.24.525929 -0400,
2.944444444444444,15.0,,182,182,0,,,,,,,,,,m1,poss,100,left,0.005728166026528925,None,None,,,,,,,,,,,0,182,182,101,275.5199293339974,,,,,,,,,,,,,,,,,,,,,,,,,,,,,,,,,,,,,,,,,,,,,,,,,,,,,,,275.51575545902597,275.5199293339974,,,,,,275.53816195903346,left,0.005728166026528925,None,275.5382164589828,275.53823862498393,None,,,,,,,,,,,,eli,0,2025-09-08_18h58.16.085,tilt_mocs,2024.2.4,None,2025-09-08 18h58.24.525929 -0400,
