center,surround,type,surr_type,surr_opacity,practice_no_time.thisRepN,practice_no_time.thisTrialN,practice_no_time.thisN,practice_no_time.thisIndex,practice_timed.thisRepN,practice_timed.thisTrialN,practice_timed.thisN,practice_timed.thisIndex,trials.thisRepN,trials.thisTrialN,trials.thisN,trials.thisIndex,thisRow.t,notes,instr.started,text_5.started,key_resp_2.started,instr.stopped,key_resp_2.keys,key_resp_2.rt,key_resp_2.duration,instr2.started,text_6.started,key_resp_6.started,instr2.stopped,key_resp_6.keys,key_resp_6.rt,key_resp_6.duration,instr3.started,text_8.started,key_resp_5.started,instr3.stopped,key_resp_5.keys,key_resp_5.rt,key_resp_5.duration,start_instr.started,text_13.started,key_resp_8.started,start_instr.stopped,key_resp_8.keys,key_resp_8.rt,key_resp_8.duration,trial.started,resp.started,surround_grating.started,center_grating.started,text_4.started,surround_grating.stopped,center_grating.stopped,trial.stopped,resp.keys,resp.rt,resp.duration,break_2.started,break_2.stopped,key_resp_10.keys,text_2.started,key_resp_10.started,key_resp_10.rt,key_resp_10.duration,end.started,text_14.started,key_resp.started,end.stopped,key_resp.keys,key_resp.rt,key_resp.duration,sub,ses,date,expName,psychopyVersion,frameRate,expStart,
,,,,,,,,,,,,,,,,,,,0.013009959002374671,0.0291066249992582,0.0291066249992582,6.873966459002986,space,6.80277287500212,None,,,,,,,,,,,,,,,,,,,,,,,,,,,,,,,,,,,,,,,,,,,,,,,sofia,0,2025-08-22_15h21.11.774,tilt_mocs,2023.2.3,120.87885016276718,2025-08-22 15h21.24.319574 -0400,
,,,,,,,,,,,,,,,,,,,,,,,,,,6.874001584001235,6.8904532919987105,6.8904532919987105,11.01308558400342,space,4.118816792004509,None,,,,,,,,,,,,,,,,,,,,,,,,,,,,,,,,,,,,,,,,sofia,0,2025-08-22_15h21.11.774,tilt_mocs,2023.2.3,120.87885016276718,2025-08-22 15h21.24.319574 -0400,
,,,,,,,,,,,,,,,,,,,,,,,,,,,,,,,,,11.035901417002606,11.049378333998902,11.049378333998902,14.72935245899862,space,3.6735571659955895,None,,,,,,,,,,,,,,,,,,,,,,,,,,,,,,,,,sofia,0,2025-08-22_15h21.11.774,tilt_mocs,2023.2.3,120.87885016276718,2025-08-22 15h21.24.319574 -0400,
,,,,,,,,,,,,,,,,,,,,,,,,,,,,,,,,,,,,,,,,14.745441708997532,14.75574104199768,14.75574104199768,17.086112375000084,space,2.3240781249987776,None,,,,,,,,,,,,,,,,,,,,,,,,,,sofia,0,2025-08-22_15h21.11.774,tilt_mocs,2023.2.3,120.87885016276718,2025-08-22 15h21.24.319574 -0400,
-1.9444444444444449,-15.0,m1,negs,100,,,,,,,,,0,0,0,385,17.14693737500056,,,,,,,,,,,,,,,,,,,,,,,,,,,,,,17.13944362499751,17.14693737500056,17.676077791998978,17.676077791998978,17.682587834002334,17.751143791996583,17.751143791996583,18.753352749998157,left,1.6049615830052062,None,18.755491791998793,18.755538792000152,None,,,,,,,,,,,,sofia,0,2025-08-22_15h21.11.774,tilt_mocs,2023.2.3,120.87885016276718,2025-08-22 15h21.24.319574 -0400,
-0.4444444444444446,-15.0,p2,negs,100,,,,,,,,,0,1,1,518,18.814174166996963,,,,,,,,,,,,,,,,,,,,,,,,,,,,,,18.7565927090036,18.814174166996963,19.25627566700132,19.25627566700132,19.33591216700006,19.33591216700006,19.33591216700006,19.902397792000556,right,1.0817612079990795,None,19.90278075000242,19.902823875003378,None,,,,,,,,,,,,sofia,0,2025-08-22_15h21.11.774,tilt_mocs,2023.2.3,120.87885016276718,2025-08-22 15h21.24.319574 -0400,
1.5,0.0,PSE,noss,0,,,,,,,,,0,2,2,628,19.9146013339996,,,,,,,,,,,,,,,,,,,,,,,,,,,,,,19.90318383400154,19.9146013339996,20.406671249998908,20.406671249998908,20.478280875002383,20.478280875002383,20.478280875002383,21.869313791998138,right,1.9499394160011434,None,21.869686291996913,21.869726541997807,None,,,,,,,,,,,,sofia,0,2025-08-22_15h21.11.774,tilt_mocs,2023.2.3,120.87885016276718,2025-08-22 15h21.24.319574 -0400,
6.277777777777779,15.0,m2,poss,100,,,,,,,,,0,3,3,77,21.87866912499885,,,,,,,,,,,,,,,,,,,,,,,,,,,,,,21.870104041998275,21.87866912499885,22.373756291999598,22.373756291999598,22.44490450000012,22.451957833996858,22.451957833996858,23.23580737500015,right,1.350846500004991,None,23.236169834002794,24.929936250002356,space,23.244732708997617,23.244732708997617,1.6812672910018591,None,,,,,,,,sofia,0,2025-08-22_15h21.11.774,tilt_mocs,2023.2.3,120.87885016276718,2025-08-22 15h21.24.319574 -0400,
1.5,0.0,PSE,noss,0,,,,,,,,,0,4,4,622,24.942156208999222,,,,,,,,,,,,,,,,,,,,,,,,,,,,,,24.931446959002642,24.942156208999222,25.42799720900075,25.42799720900075,25.50253179200081,25.50253179200081,25.50253179200081,26.419592209000257,right,1.4733044579988928,None,26.41996179200214,26.42000216699671,None,,,,,,,,,,,,sofia,0,2025-08-22_15h21.11.774,tilt_mocs,2023.2.3,120.87885016276718,2025-08-22 15h21.24.319574 -0400,
2.0,0.0,p1,noss,0,,,,,,,,,0,5,5,656,26.42927491699811,,,,,,,,,,,,,,,,,,,,,,,,,,,,,,26.42035983400274,26.42927491699811,26.922880459002045,26.922880459002045,26.994951084001514,27.002555624996603,27.002555624996603,27.47966933400312,right,1.040647458001331,None,27.48010820899799,27.480161792002036,None,,,,,,,,,,,,sofia,0,2025-08-22_15h21.11.774,tilt_mocs,2023.2.3,120.87885016276718,2025-08-22 15h21.24.319574 -0400,
-2.4444444444444446,-15.0,m2,negs,100,,,,,,,,,0,6,6,327,27.48955283399846,,,,,,,,,,,,,,,,,,,,,,,,,,,,,,27.48060354199697,27.48955283399846,27.979488833996584,27.979488833996584,28.052811166999163,28.052811166999163,28.052811166999163,28.76951908400224,left,1.2738191669996013,None,28.769975167000666,28.77002404200175,None,,,,,,,,,,,,sofia,0,2025-08-22_15h21.11.774,tilt_mocs,2023.2.3,120.87885016276718,2025-08-22 15h21.24.319574 -0400,
7.277777777777779,15.0,PSE,poss,100,,,,,,,,,0,7,7,129,28.795293167000636,,,,,,,,,,,,,,,,,,,,,,,,,,,,,,28.770461792002607,28.795293167000636,29.273094666998077,29.273094666998077,29.344984499999555,29.344984499999555,29.344984499999555,29.919526833997224,right,1.1194132500022533,None,29.919895874998474,29.919934500001546,None,,,,,,,,,,,,sofia,0,2025-08-22_15h21.11.774,tilt_mocs,2023.2.3,120.87885016276718,2025-08-22 15h21.24.319574 -0400,
-0.4444444444444446,-15.0,p2,negs,100,,,,,,,,,0,8,8,506,29.929171374998987,,,,,,,,,,,,,,,,,,,,,,,,,,,,,,29.920287000000826,29.929171374998987,30.422300334001193,30.422300334001193,30.495024167001247,30.495024167001247,30.495024167001247,31.203600583998195,right,1.2730622910021339,None,31.20403329200053,31.204080041999987,None,,,,,,,,,,,,sofia,0,2025-08-22_15h21.11.774,tilt_mocs,2023.2.3,120.87885016276718,2025-08-22 15h21.24.319574 -0400,
5.777777777777779,15.0,m3,poss,100,,,,,,,,,0,9,9,23,31.213877750000393,,,,,,,,,,,,,,,,,,,,,,,,,,,,,,31.20449891700264,31.213877750000393,31.70545787500305,31.70545787500305,31.77839016699727,31.77839016699727,31.77839016699727,32.51960416699876,right,1.3017977499985136,None,32.520050583996635,32.52009995900153,None,,,,,,,,,,,,sofia,0,2025-08-22_15h21.11.774,tilt_mocs,2023.2.3,120.87885016276718,2025-08-22 15h21.24.319574 -0400,
-0.9444444444444446,-15.0,p1,negs,100,,,,,,,,,0,10,10,460,32.53025937500206,,,,,,,,,,,,,,,,,,,,,,,,,,,,,,32.520528624998406,32.53025937500206,33.02336016699701,33.02336016699701,33.094990459001565,33.101887500000885,33.101887500000885,33.86295204199996,right,1.3254354579985375,None,33.86332337500062,33.86336379199929,None,,,,,,,,,,,,sofia,0,2025-08-22_15h21.11.774,tilt_mocs,2023.2.3,120.87885016276718,2025-08-22 15h21.24.319574 -0400,
-0.0555555555555553,-15.0,p3,negs,100,,,,,,,,,0,11,11,551,33.87251404199924,,,,,,,,,,,,,,,,,,,,,,,,,,,,,,33.863725333998445,33.87251404199924,34.36254979200021,34.36254979200021,34.43586387499818,34.43586387499818,34.43586387499818,36.16305016700062,right,2.2851145840031677,None,36.1634195000006,36.16345887500211,None,,,,,,,,,,,,sofia,0,2025-08-22_15h21.11.774,tilt_mocs,2023.2.3,120.87885016276718,2025-08-22 15h21.24.319574 -0400,
-1.9444444444444449,-15.0,m1,negs,100,,,,,,,,,0,12,12,383,36.172649583997554,,,,,,,,,,,,,,,,,,,,,,,,,,,,,,36.16381358399667,36.172649583997554,36.662089541998284,36.662089541998284,36.736368666999624,36.736368666999624,36.736368666999624,37.413286875002086,right,1.23179091700149,None,37.413737292001315,37.413784625001426,None,,,,,,,,,,,,sofia,0,2025-08-22_15h21.11.774,tilt_mocs,2023.2.3,120.87885016276718,2025-08-22 15h21.24.319574 -0400,
2.5,0.0,p2,noss,0,,,,,,,,,0,13,13,676,37.42354133399931,,,,,,,,,,,,,,,,,,,,,,,,,,,,,,37.41421637500025,37.42354133399931,37.91134495900042,37.91134495900042,37.98669383399829,37.98669383399829,37.98669383399829,38.59664833400166,right,1.1632031249973807,None,38.59701412499999,38.597052500001155,None,,,,,,,,,,,,sofia,0,2025-08-22_15h21.11.774,tilt_mocs,2023.2.3,120.87885016276718,2025-08-22 15h21.24.319574 -0400,
2.5,0.0,p2,noss,0,,,,,,,,,0,14,14,662,38.60650483400241,,,,,,,,,,,,,,,,,,,,,,,,,,,,,,38.59745904200099,38.60650483400241,39.11212450000312,39.11212450000312,39.17103837500326,39.18509579200327,39.18509579200327,39.646894249999605,right,1.038993374997517,None,39.647324124998704,39.64737504199729,None,,,,,,,,,,,,sofia,0,2025-08-22_15h21.11.774,tilt_mocs,2023.2.3,120.87885016276718,2025-08-22 15h21.24.319574 -0400,
5.777777777777779,15.0,m3,poss,100,,,,,,,,,0,15,15,38,39.65704370899766,,,,,,,,,,,,,,,,,,,,,,,,,,,,,,39.64779108399671,39.65704370899766,40.14587833399855,40.14587833399855,40.22008145900327,40.22008145900327,40.22008145900327,40.98010824999801,right,1.314132833002077,None,40.98046987500129,40.980509291999624,None,,,,,,,,,,,,sofia,0,2025-08-22_15h21.11.774,tilt_mocs,2023.2.3,120.87885016276718,2025-08-22 15h21.24.319574 -0400,
0.5,0.0,m2,noss,0,,,,,,,,,0,16,16,583,40.989580875000684,,,,,,,,,,,,,,,,,,,,,,,,,,,,,,40.98086966700066,40.989580875000684,41.478179958998226,41.478179958998226,41.552526874998875,41.552526874998875,41.552526874998875,42.20314599999983,right,1.20782679200056,None,42.20351454200136,42.20355404199654,None,,,,,,,,,,,,sofia,0,2025-08-22_15h21.11.774,tilt_mocs,2023.2.3,120.87885016276718,2025-08-22 15h21.24.319574 -0400,
-0.9444444444444446,-15.0,p1,negs,100,,,,,,,,,0,17,17,473,42.228657166997436,,,,,,,,,,,,,,,,,,,,,,,,,,,,,,42.203899583997554,42.228657166997436,42.706210083997576,42.706210083997576,42.778424459000234,42.78553712499706,42.78553712499706,43.26327324999875,left,1.025540375005221,None,43.2637180840029,43.2637665000002,None,,,,,,,,,,,,sofia,0,2025-08-22_15h21.11.774,tilt_mocs,2023.2.3,120.87885016276718,2025-08-22 15h21.24.319574 -0400,
-0.9444444444444446,-15.0,p1,negs,100,,,,,,,,,0,18,18,464,43.27378495899757,,,,,,,,,,,,,,,,,,,,,,,,,,,,,,43.26418908400228,43.27378495899757,43.761765000002924,43.761765000002924,43.83686441699683,43.83686441699683,43.83686441699683,44.39719858400349,right,1.1220218750022468,None,44.39764529200329,44.397693375001836,None,,,,,,,,,,,,sofia,0,2025-08-22_15h21.11.774,tilt_mocs,2023.2.3,120.87885016276718,2025-08-22 15h21.24.319574 -0400,
-0.9444444444444446,-15.0,p1,negs,100,,,,,,,,,0,19,19,467,44.40696583400131,,,,,,,,,,,,,,,,,,,,,,,,,,,,,,44.398109875000955,44.40696583400131,44.895805542000744,44.895805542000744,44.968981792000704,44.968981792000704,44.968981792000704,45.43640937499731,right,1.0245460829974036,None,45.43685845899745,45.43690591699851,None,,,,,,,,,,,,sofia,0,2025-08-22_15h21.11.774,tilt_mocs,2023.2.3,120.87885016276718,2025-08-22 15h21.24.319574 -0400,
-1.4444444444444446,-15.0,PSE,negs,100,,,,,,,,,0,20,20,403,45.46195983399957,,,,,,,,,,,,,,,,,,,,,,,,,,,,,,45.43732699999964,45.46195983399957,45.94064999999682,45.94064999999682,46.01189216700004,46.01871341699734,46.01871341699734,46.763441666997096,left,1.2912498750010855,None,46.76387766699918,46.76392495899927,None,,,,,,,,,,,,sofia,0,2025-08-22_15h21.11.774,tilt_mocs,2023.2.3,120.87885016276718,2025-08-22 15h21.24.319574 -0400,
-2.4444444444444446,-15.0,m2,negs,100,,,,,,,,,0,21,21,326,46.77314050000132,,,,,,,,,,,,,,,,,,,,,,,,,,,,,,46.76435362500342,46.77314050000132,47.26188945899776,47.26188945899776,47.33574562500144,47.33574562500144,47.33574562500144,48.11314395900263,left,1.335750124999322,None,48.11357795899676,48.11362512499909,None,,,,,,,,,,,,sofia,0,2025-08-22_15h21.11.774,tilt_mocs,2023.2.3,120.87885016276718,2025-08-22 15h21.24.319574 -0400,
-2.9444444444444446,-15.0,m3,negs,100,,,,,,,,,0,22,22,302,48.12360887500108,,,,,,,,,,,,,,,,,,,,,,,,,,,,,,48.11404749999929,48.12360887500108,48.61198929200327,48.61198929200327,48.686683624997386,48.686683624997386,48.686683624997386,49.20372483399842,left,1.078840666996257,None,49.20408412499819,49.2041221249965,None,,,,,,,,,,,,sofia,0,2025-08-22_15h21.11.774,tilt_mocs,2023.2.3,120.87885016276718,2025-08-22 15h21.24.319574 -0400,
8.777777777777779,15.0,p3,poss,100,,,,,,,,,0,23,23,277,49.22875645900058,,,,,,,,,,,,,,,,,,,,,,,,,,,,,,49.2044756250034,49.22875645900058,49.70570379200217,49.70570379200217,49.778575999996974,49.778575999996974,49.778575999996974,50.347272917002556,right,1.1171305419993587,None,50.34771300000284,50.347758999996586,None,,,,,,,,,,,,sofia,0,2025-08-22_15h21.11.774,tilt_mocs,2023.2.3,120.87885016276718,2025-08-22 15h21.24.319574 -0400,
-2.9444444444444446,-15.0,m3,negs,100,,,,,,,,,0,24,24,290,50.35727366700303,,,,,,,,,,,,,,,,,,,,,,,,,,,,,,50.348170334000315,50.35727366700303,50.84597191699868,50.84597191699868,50.92060833400319,50.92060833400319,50.92060833400319,51.529913999998826,left,1.1680077089986298,None,51.53037233399664,51.530418709000514,None,,,,,,,,,,,,sofia,0,2025-08-22_15h21.11.774,tilt_mocs,2023.2.3,120.87885016276718,2025-08-22 15h21.24.319574 -0400,
8.277777777777779,15.0,p2,poss,100,,,,,,,,,0,25,25,224,51.53968737499963,,,,,,,,,,,,,,,,,,,,,,,,,,,,,,51.53087237499858,51.53968737499963,52.028863958999864,52.028863958999864,52.10301058400364,52.10301058400364,52.10301058400364,52.56345175000024,right,1.0156588329991791,None,52.563886750001984,52.56393299999763,None,,,,,,,,,,,,sofia,0,2025-08-22_15h21.11.774,tilt_mocs,2023.2.3,120.87885016276718,2025-08-22 15h21.24.319574 -0400,
2.5,0.0,p2,noss,0,,,,,,,,,0,26,26,679,52.57350066700019,,,,,,,,,,,,,,,,,,,,,,,,,,,,,,52.564347209001426,52.57350066700019,53.06255104199954,53.06255104199954,53.136733166997146,53.136733166997146,53.136733166997146,53.62993554199784,left,1.0551040409991401,None,53.630362541996874,53.63041033400077,None,,,,,,,,,,,,sofia,0,2025-08-22_15h21.11.774,tilt_mocs,2023.2.3,120.87885016276718,2025-08-22 15h21.24.319574 -0400,
7.277777777777779,15.0,PSE,poss,100,,,,,,,,,0,27,27,153,53.63971333399968,,,,,,,,,,,,,,,,,,,,,,,,,,,,,,53.63082625000243,53.63971333399968,54.129874416998064,54.129874416998064,54.203164416998334,54.203164416998334,54.203164416998334,55.23012404199835,left,1.584199417004129,None,55.230557417002274,55.230604709002364,None,,,,,,,,,,,,sofia,0,2025-08-22_15h21.11.774,tilt_mocs,2023.2.3,120.87885016276718,2025-08-22 15h21.24.319574 -0400,
7.277777777777779,15.0,PSE,poss,100,,,,,,,,,0,28,28,128,55.24002108399873,,,,,,,,,,,,,,,,,,,,,,,,,,,,,,55.23103925000032,55.24002108399873,55.728033209001296,55.728033209001296,55.80273124999803,55.80273124999803,55.80273124999803,56.50388350000139,right,1.2584224580059526,None,56.50432645899855,56.50437345899991,None,,,,,,,,,,,,sofia,0,2025-08-22_15h21.11.774,tilt_mocs,2023.2.3,120.87885016276718,2025-08-22 15h21.24.319574 -0400,
7.777777777777779,15.0,p1,poss,100,,,,,,,,,0,29,29,183,56.51394666700071,,,,,,,,,,,,,,,,,,,,,,,,,,,,,,56.50475749999896,56.51394666700071,57.00611741699686,57.00611741699686,57.07890724999743,57.08595554200292,57.08595554200292,57.530068041996856,right,1.014321957998618,None,57.53050420899672,57.53054987500218,None,,,,,,,,,,,,sofia,0,2025-08-22_15h21.11.774,tilt_mocs,2023.2.3,120.87885016276718,2025-08-22 15h21.24.319574 -0400,
-0.4444444444444446,-15.0,p2,negs,100,,,,,,,,,0,30,30,481,57.540157709001505,,,,,,,,,,,,,,,,,,,,,,,,,,,,,,57.5309686249966,57.540157709001505,58.02853208399756,58.02853208399756,58.10233045899804,58.10233045899804,58.10233045899804,58.846264542000426,left,1.3025960000013583,None,58.84662645900244,58.846666167002695,None,,,,,,,,,,,,sofia,0,2025-08-22_15h21.11.774,tilt_mocs,2023.2.3,120.87885016276718,2025-08-22 15h21.24.319574 -0400,
6.277777777777779,15.0,m2,poss,100,,,,,,,,,0,31,31,63,58.85579441700247,,,,,,,,,,,,,,,,,,,,,,,,,,,,,,58.84701179200056,58.85579441700247,59.340642374998424,59.340642374998424,59.419366417001584,59.419366417001584,59.419366417001584,59.97031333400082,right,1.113113916995644,None,59.97075029199914,59.97079745899828,None,,,,,,,,,,,,sofia,0,2025-08-22_15h21.11.774,tilt_mocs,2023.2.3,120.87885016276718,2025-08-22 15h21.24.319574 -0400,
-2.4444444444444446,-15.0,m2,negs,100,,,,,,,,,0,32,32,340,59.99560979200032,,,,,,,,,,,,,,,,,,,,,,,,,,,,,,59.9712087500011,59.99560979200032,60.47288808399753,60.47288808399753,60.54574054200202,60.55261570899893,60.55261570899893,61.06341554199753,left,1.0663452499939012,None,61.06378341699747,61.06382295899675,None,,,,,,,,,,,,sofia,0,2025-08-22_15h21.11.774,tilt_mocs,2023.2.3,120.87885016276718,2025-08-22 15h21.24.319574 -0400,
-0.0555555555555553,-15.0,p3,negs,100,,,,,,,,,0,33,33,536,61.07301154200104,,,,,,,,,,,,,,,,,,,,,,,,,,,,,,61.064164292001806,61.07301154200104,61.561457834002795,61.561457834002795,61.636690125000314,61.636690125000314,61.636690125000314,62.67950545899657,right,1.6028290829999605,None,62.67986699999892,62.6799079170014,None,,,,,,,,,,,,sofia,0,2025-08-22_15h21.11.774,tilt_mocs,2023.2.3,120.87885016276718,2025-08-22 15h21.24.319574 -0400,
2.0,0.0,p1,noss,0,,,,,,,,,0,34,34,645,62.68895516700286,,,,,,,,,,,,,,,,,,,,,,,,,,,,,,62.68024454200349,62.68895516700286,63.172753541999555,63.172753541999555,63.253671584003314,63.24599429200316,63.24599429200316,63.9965979999979,left,1.2989494159992319,None,63.99703862499882,63.99708558400016,None,,,,,,,,,,,,sofia,0,2025-08-22_15h21.11.774,tilt_mocs,2023.2.3,120.87885016276718,2025-08-22 15h21.24.319574 -0400,
7.277777777777779,15.0,PSE,poss,100,,,,,,,,,0,35,35,125,64.006698666999,,,,,,,,,,,,,,,,,,,,,,,,,,,,,,63.99752270900353,64.006698666999,64.49544829200022,64.49544829200022,64.56900620899978,64.56900620899978,64.56900620899978,65.047058791999,right,1.0307997909985716,None,65.0475100420008,65.04755575000308,None,,,,,,,,,,,,sofia,0,2025-08-22_15h21.11.774,tilt_mocs,2023.2.3,120.87885016276718,2025-08-22 15h21.24.319574 -0400,
-0.4444444444444446,-15.0,p2,negs,100,,,,,,,,,0,36,36,487,65.05693933399743,,,,,,,,,,,,,,,,,,,,,,,,,,,,,,65.04797529200005,65.05693933399743,65.54564950000349,65.54564950000349,65.6206438750014,65.6206438750014,65.6206438750014,66.26302533400303,left,1.2026371669999207,None,66.26338116700208,66.26342316700175,None,,,,,,,,,,,,sofia,0,2025-08-22_15h21.11.774,tilt_mocs,2023.2.3,120.87885016276718,2025-08-22 15h21.24.319574 -0400,
6.277777777777779,15.0,m2,poss,100,,,,,,,,,0,37,37,71,66.27250629199989,,,,,,,,,,,,,,,,,,,,,,,,,,,,,,66.26377341699845,66.27250629199989,66.7566859169965,66.7566859169965,66.83648595900013,66.82928520900168,66.82928520900168,67.37968395899952,right,1.1000162080017617,None,67.38011129199731,67.38015879200248,None,,,,,,,,,,,,sofia,0,2025-08-22_15h21.11.774,tilt_mocs,2023.2.3,120.87885016276718,2025-08-22 15h21.24.319574 -0400,
3.0,0.0,p3,noss,0,,,,,,,,,0,38,38,682,67.3897297500007,,,,,,,,,,,,,,,,,,,,,,,,,,,,,,67.38060566700005,67.3897297500007,67.87415054199664,67.87415054199664,67.95268045899866,67.95268045899866,67.95268045899866,68.66353137500118,left,1.2720544999974663,None,68.66388858400023,68.66392529199948,None,,,,,,,,,,,,sofia,0,2025-08-22_15h21.11.774,tilt_mocs,2023.2.3,120.87885016276718,2025-08-22 15h21.24.319574 -0400,
-0.0555555555555553,-15.0,p3,negs,100,,,,,,,,,0,39,39,525,68.67293345899816,,,,,,,,,,,,,,,,,,,,,,,,,,,,,,68.66426879200299,68.67293345899816,69.1615143750023,69.1615143750023,69.2369815839993,69.2369815839993,69.2369815839993,69.78043608400185,right,1.0991385000015725,None,69.78088195899909,69.78093020900269,None,,,,,,,,,,,,sofia,0,2025-08-22_15h21.11.774,tilt_mocs,2023.2.3,120.87885016276718,2025-08-22 15h21.24.319574 -0400,
-0.9444444444444446,-15.0,p1,negs,100,,,,,,,,,0,40,40,465,69.79018041700328,,,,,,,,,,,,,,,,,,,,,,,,,,,,,,69.78134795899678,69.79018041700328,70.27873125000042,70.27873125000042,70.35309079199942,70.35309079199942,70.35309079199942,70.96375045899913,left,1.1723777499937569,None,70.96411045899731,70.96414804200322,None,,,,,,,,,,,,sofia,0,2025-08-22_15h21.11.774,tilt_mocs,2023.2.3,120.87885016276718,2025-08-22 15h21.24.319574 -0400,
-2.4444444444444446,-15.0,m2,negs,100,,,,,,,,,0,41,41,339,70.97320241700072,,,,,,,,,,,,,,,,,,,,,,,,,,,,,,70.9644919170023,70.97320241700072,71.46317558400187,71.46317558400187,71.53664050000225,71.53664050000225,71.53664050000225,72.38718370899733,left,1.407479167006386,None,72.38754741699813,72.38758750000125,None,,,,,,,,,,,,sofia,0,2025-08-22_15h21.11.774,tilt_mocs,2023.2.3,120.87885016276718,2025-08-22 15h21.24.319574 -0400,
8.277777777777779,15.0,p2,poss,100,,,,,,,,,0,42,42,225,72.41222725000262,,,,,,,,,,,,,,,,,,,,,,,,,,,,,,72.38793479200103,72.41222725000262,72.89098954200017,72.89098954200017,72.962141875003,72.96916724999755,72.96916724999755,73.46325429200078,right,1.0475566659952165,None,73.46368458399957,73.46373529200355,None,,,,,,,,,,,,sofia,0,2025-08-22_15h21.11.774,tilt_mocs,2023.2.3,120.87885016276718,2025-08-22 15h21.24.319574 -0400,
-1.4444444444444446,-15.0,PSE,negs,100,,,,,,,,,0,43,43,408,73.47302366700023,,,,,,,,,,,,,,,,,,,,,,,,,,,,,,73.46416154199687,73.47302366700023,73.96284416699928,73.96284416699928,74.03749891700136,74.03749891700136,74.03749891700136,74.50410104200273,left,1.0278529170027468,None,74.50453908400232,74.50458729200182,None,,,,,,,,,,,,sofia,0,2025-08-22_15h21.11.774,tilt_mocs,2023.2.3,120.87885016276718,2025-08-22 15h21.24.319574 -0400,
2.5,0.0,p2,noss,0,,,,,,,,,0,44,44,673,74.513938666998,,,,,,,,,,,,,,,,,,,,,,,,,,,,,,74.50498712500121,74.513938666998,75.0066170420032,75.0066170420032,75.07882891700137,75.07882891700137,75.07882891700137,75.7041146249976,right,1.188653584002168,None,75.70455383400258,75.70460216700303,None,,,,,,,,,,,,sofia,0,2025-08-22_15h21.11.774,tilt_mocs,2023.2.3,120.87885016276718,2025-08-22 15h21.24.319574 -0400,
8.777777777777779,15.0,p3,poss,100,,,,,,,,,0,45,45,274,75.7139798749995,,,,,,,,,,,,,,,,,,,,,,,,,,,,,,75.70501979200344,75.7139798749995,76.2067509999979,76.2067509999979,76.27886458399735,76.28602916700038,76.28602916700038,76.71256045899645,right,0.9889286670004367,None,76.71297383400088,76.71301362499798,None,,,,,,,,,,,,sofia,0,2025-08-22_15h21.11.774,tilt_mocs,2023.2.3,120.87885016276718,2025-08-22 15h21.24.319574 -0400,
-1.4444444444444446,-15.0,PSE,negs,100,,,,,,,,,0,46,46,423,76.71997704199748,,,,,,,,,,,,,,,,,,,,,,,,,,,,,,76.71335283399821,76.71997704199748,77.20673425000132,77.20673425000132,77.28702099999646,77.28702099999646,77.28702099999646,77.8299518749991,left,1.10500604200206,None,77.83038533399667,77.83043166699645,None,,,,,,,,,,,,sofia,0,2025-08-22_15h21.11.774,tilt_mocs,2023.2.3,120.87885016276718,2025-08-22 15h21.24.319574 -0400,
-1.9444444444444449,-15.0,m1,negs,100,,,,,,,,,0,47,47,367,77.83994829199946,,,,,,,,,,,,,,,,,,,,,,,,,,,,,,77.83085233400197,77.83994829199946,78.32804341700103,78.32804341700103,78.40386220900109,78.40386220900109,78.40386220900109,78.83010325000214,left,0.9859225000036531,None,78.83053683400067,78.83058300000266,None,,,,,,,,,,,,sofia,0,2025-08-22_15h21.11.774,tilt_mocs,2023.2.3,120.87885016276718,2025-08-22 15h21.24.319574 -0400,
0.0,0.0,m3,noss,0,,,,,,,,,0,48,48,560,78.83990012499999,,,,,,,,,,,,,,,,,,,,,,,,,,,,,,78.83099366699753,78.83990012499999,79.32983254199644,79.32983254199644,79.40373879200342,79.40373879200342,79.40373879200342,80.00384287499764,left,1.1612729170010425,None,80.00427720900188,80.00432220900257,None,,,,,,,,,,,,sofia,0,2025-08-22_15h21.11.774,tilt_mocs,2023.2.3,120.87885016276718,2025-08-22 15h21.24.319574 -0400,
1.0,0.0,m1,noss,0,,,,,,,,,0,49,49,618,80.01400383400323,,,,,,,,,,,,,,,,,,,,,,,,,,,,,,80.0047512500023,80.01400383400323,80.50660516700009,80.50660516700009,80.57893066699762,80.57893066699762,80.57893066699762,81.11314283400134,right,1.0932783329990343,None,81.11351187500259,81.11354983400088,None,,,,,,,,,,,,sofia,0,2025-08-22_15h21.11.774,tilt_mocs,2023.2.3,120.87885016276718,2025-08-22 15h21.24.319574 -0400,
7.777777777777779,15.0,p1,poss,100,,,,,,,,,0,50,50,181,81.12284708399966,,,,,,,,,,,,,,,,,,,,,,,,,,,,,,81.11390479200054,81.12284708399966,81.60711591700237,81.60711591700237,81.68688083400048,81.68688083400048,81.68688083400048,82.24631570900237,right,1.1147933329993975,None,82.24675187499815,82.24679716699757,None,,,,,,,,,,,,sofia,0,2025-08-22_15h21.11.774,tilt_mocs,2023.2.3,120.87885016276718,2025-08-22 15h21.24.319574 -0400,
8.777777777777779,15.0,p3,poss,100,,,,,,,,,0,51,51,250,82.25584516699746,,,,,,,,,,,,,,,,,,,,,,,,,,,,,,82.2471645839978,82.25584516699746,82.74003733399877,82.74003733399877,82.82089308399736,82.81285133399797,82.81285133399797,83.21322966700245,right,0.9525803750002524,None,83.21366212500288,83.21370849999948,None,,,,,,,,,,,,sofia,0,2025-08-22_15h21.11.774,tilt_mocs,2023.2.3,120.87885016276718,2025-08-22 15h21.24.319574 -0400,
6.777777777777779,15.0,m1,poss,100,,,,,,,,,0,52,52,100,83.223074542002,,,,,,,,,,,,,,,,,,,,,,,,,,,,,,83.21413483400102,83.223074542002,83.70627458400122,83.70627458400122,83.78706333399896,83.77943254200363,83.77943254200363,84.2138025000022,right,0.9866054160011117,None,84.214241458998,84.21428983400256,None,,,,,,,,,,,,sofia,0,2025-08-22_15h21.11.774,tilt_mocs,2023.2.3,120.87885016276718,2025-08-22 15h21.24.319574 -0400,
1.5,0.0,PSE,noss,0,,,,,,,,,0,53,53,625,84.22355737500038,,,,,,,,,,,,,,,,,,,,,,,,,,,,,,84.2147138750006,84.22355737500038,84.71296812500077,84.71296812500077,84.78744970900152,84.78744970900152,84.78744970900152,85.22354633399664,left,0.9897050420040614,None,85.22391729200172,85.22395570899971,None,,,,,,,,,,,,sofia,0,2025-08-22_15h21.11.774,tilt_mocs,2023.2.3,120.87885016276718,2025-08-22 15h21.24.319574 -0400,
1.0,0.0,m1,noss,0,,,,,,,,,0,54,54,609,85.2311529169965,,,,,,,,,,,,,,,,,,,,,,,,,,,,,,85.22430012500263,85.2311529169965,85.72383958400314,85.72383958400314,85.80427166700247,85.80427166700247,85.80427166700247,86.36323708399868,left,1.125809458004369,None,86.36360266699921,86.36364166699786,None,,,,,,,,,,,,sofia,0,2025-08-22_15h21.11.774,tilt_mocs,2023.2.3,120.87885016276718,2025-08-22 15h21.24.319574 -0400,
6.777777777777779,15.0,m1,poss,100,,,,,,,,,0,55,55,109,86.37273362500127,,,,,,,,,,,,,,,,,,,,,,,,,,,,,,86.36401262500294,86.37273362500127,86.85640974999842,86.85640974999842,86.93661791700288,86.92951779199939,86.92951779199939,87.39692991699849,right,1.0198768749978626,None,87.39735683400068,87.39741545900324,None,,,,,,,,,,,,sofia,0,2025-08-22_15h21.11.774,tilt_mocs,2023.2.3,120.87885016276718,2025-08-22 15h21.24.319574 -0400,
-0.0555555555555553,-15.0,p3,negs,100,,,,,,,,,0,56,56,556,87.40683512500254,,,,,,,,,,,,,,,,,,,,,,,,,,,,,,87.39782891699724,87.40683512500254,87.89592683399678,87.89592683399678,87.97063266699843,87.97063266699843,87.97063266699843,88.35425762499654,left,0.946092124999268,None,88.35469329199987,88.35474037499807,None,,,,,,,,,,,,sofia,0,2025-08-22_15h21.11.774,tilt_mocs,2023.2.3,120.87885016276718,2025-08-22 15h21.24.319574 -0400,
-0.0555555555555553,-15.0,p3,negs,100,,,,,,,,,0,57,57,539,88.36460187500052,,,,,,,,,,,,,,,,,,,,,,,,,,,,,,88.35516062499664,88.36460187500052,88.85692158400343,88.85692158400343,88.92890637499659,88.93586841700017,88.93586841700017,89.78033579199837,right,1.4114037500039558,None,89.78077362500335,89.78082062499743,None,,,,,,,,,,,,sofia,0,2025-08-22_15h21.11.774,tilt_mocs,2023.2.3,120.87885016276718,2025-08-22 15h21.24.319574 -0400,
8.777777777777779,15.0,p3,poss,100,,,,,,,,,0,58,58,262,89.7905964169986,,,,,,,,,,,,,,,,,,,,,,,,,,,,,,89.78124158400169,89.7905964169986,90.27971079199779,90.27971079199779,90.35270987499825,90.35270987499825,90.35270987499825,90.9967797499994,right,1.1965340000024298,None,90.9972091669988,90.99725637499796,None,,,,,,,,,,,,sofia,0,2025-08-22_15h21.11.774,tilt_mocs,2023.2.3,120.87885016276718,2025-08-22 15h21.24.319574 -0400,
8.277777777777779,15.0,p2,poss,100,,,,,,,,,0,59,59,216,91.006574250001,,,,,,,,,,,,,,,,,,,,,,,,,,,,,,90.99770470899966,91.006574250001,91.49555612500262,91.49555612500262,91.57004879199667,91.57004879199667,91.57004879199667,92.0135700000028,right,0.9980595000015455,None,92.01402358400082,92.01406975000282,None,,,,,,,,,,,,sofia,0,2025-08-22_15h21.11.774,tilt_mocs,2023.2.3,120.87885016276718,2025-08-22 15h21.24.319574 -0400,
0.0,0.0,m3,noss,0,,,,,,,,,0,60,60,574,92.0234300000011,,,,,,,,,,,,,,,,,,,,,,,,,,,,,,92.01449799999682,92.0234300000011,92.51231837499654,92.51231837499654,92.58753612500004,92.58753612500004,92.58753612500004,93.02064370900189,left,0.9941418750022422,None,93.02101758399658,93.02105579199997,None,,,,,,,,,,,,sofia,0,2025-08-22_15h21.11.774,tilt_mocs,2023.2.3,120.87885016276718,2025-08-22 15h21.24.319574 -0400,
8.277777777777779,15.0,p2,poss,100,,,,,,,,,0,61,61,205,93.04582812500303,,,,,,,,,,,,,,,,,,,,,,,,,,,,,,93.02140058400255,93.04582812500303,93.52298658400105,93.52298658400105,93.59566066700063,93.59566066700063,93.59566066700063,94.0472898750013,right,0.9956461659967317,None,94.0476572089974,94.04769516699889,None,,,,,,,,,,,,sofia,0,2025-08-22_15h21.11.774,tilt_mocs,2023.2.3,120.87885016276718,2025-08-22 15h21.24.319574 -0400,
-0.0555555555555553,-15.0,p3,negs,100,,,,,,,,,0,62,62,535,94.05672258399863,,,,,,,,,,,,,,,,,,,,,,,,,,,,,,94.04804508399684,94.05672258399863,94.5459035840031,94.5459035840031,94.62006324999675,94.62006324999675,94.62006324999675,95.16388537499734,left,1.0969041249991278,None,95.164345666999,95.16439037500095,None,,,,,,,,,,,,sofia,0,2025-08-22_15h21.11.774,tilt_mocs,2023.2.3,120.87885016276718,2025-08-22 15h21.24.319574 -0400,
-2.4444444444444446,-15.0,m2,negs,100,,,,,,,,,0,63,63,358,95.17403933400055,,,,,,,,,,,,,,,,,,,,,,,,,,,,,,95.16482120900037,95.17403933400055,95.66269262500282,95.66269262500282,95.7376014170004,95.7376014170004,95.7376014170004,96.26410429200041,left,1.0802969579963246,None,96.26454895899951,96.26459595900087,None,,,,,,,,,,,,sofia,0,2025-08-22_15h21.11.774,tilt_mocs,2023.2.3,120.87885016276718,2025-08-22 15h21.24.319574 -0400,
-2.4444444444444446,-15.0,m2,negs,100,,,,,,,,,0,64,64,356,96.27352929199697,,,,,,,,,,,,,,,,,,,,,,,,,,,,,,96.26501879200077,96.27352929199697,96.76259800000116,96.76259800000116,96.83697299999767,96.83697299999767,96.83697299999767,97.86374645899923,left,1.5856297089994769,None,97.86418404200231,97.8642312919983,None,,,,,,,,,,,,sofia,0,2025-08-22_15h21.11.774,tilt_mocs,2023.2.3,120.87885016276718,2025-08-22 15h21.24.319574 -0400,
-1.9444444444444449,-15.0,m1,negs,100,,,,,,,,,0,65,65,366,97.87333320899779,,,,,,,,,,,,,,,,,,,,,,,,,,,,,,97.86466458399809,97.87333320899779,98.36289120899892,98.36289120899892,98.43706279199978,98.43706279199978,98.43706279199978,99.14728629199817,left,1.2656204579980113,None,99.14765991699824,99.14769825000258,None,,,,,,,,,,,,sofia,0,2025-08-22_15h21.11.774,tilt_mocs,2023.2.3,120.87885016276718,2025-08-22 15h21.24.319574 -0400,
6.277777777777779,15.0,m2,poss,100,,,,,,,,,0,66,66,52,99.15697016700142,,,,,,,,,,,,,,,,,,,,,,,,,,,,,,99.14804737499799,99.15697016700142,99.64590170900192,99.64590170900192,99.72017104199767,99.72017104199767,99.72017104199767,100.1705094170029,right,1.0108292090008035,None,100.17096662500262,100.17101579200244,None,,,,,,,,,,,,sofia,0,2025-08-22_15h21.11.774,tilt_mocs,2023.2.3,120.87885016276718,2025-08-22 15h21.24.319574 -0400,
7.777777777777779,15.0,p1,poss,100,,,,,,,,,0,67,67,169,100.19587654199859,,,,,,,,,,,,,,,,,,,,,,,,,,,,,,100.17144391700276,100.19587654199859,100.67346387499856,100.67346387499856,100.74584529200365,100.74584529200365,100.74584529200365,101.24743591700098,right,1.0422798750005313,None,101.24780270899646,101.24784162500146,None,,,,,,,,,,,,sofia,0,2025-08-22_15h21.11.774,tilt_mocs,2023.2.3,120.87885016276718,2025-08-22 15h21.24.319574 -0400,
2.0,0.0,p1,noss,0,,,,,,,,,0,68,68,654,101.25707966699702,,,,,,,,,,,,,,,,,,,,,,,,,,,,,,101.24821454199991,101.25707966699702,101.74634837500344,101.74634837500344,101.81960170900129,101.81960170900129,101.81960170900129,102.3368618750028,left,1.0755711659949156,None,102.33722529200168,102.33726308400219,None,,,,,,,,,,,,sofia,0,2025-08-22_15h21.11.774,tilt_mocs,2023.2.3,120.87885016276718,2025-08-22 15h21.24.319574 -0400,
8.777777777777779,15.0,p3,poss,100,,,,,,,,,0,69,69,265,102.34610470900225,,,,,,,,,,,,,,,,,,,,,,,,,,,,,,102.33761529200274,102.34610470900225,102.84600350000255,102.84600350000255,102.9124517090022,102.91951800000243,102.91951800000243,103.43070204200194,right,1.0753764170003706,None,103.4310672089996,103.43110516700108,None,,,,,,,,,,,,sofia,0,2025-08-22_15h21.11.774,tilt_mocs,2023.2.3,120.87885016276718,2025-08-22 15h21.24.319574 -0400,
-0.9444444444444446,-15.0,p1,negs,100,,,,,,,,,0,70,70,442,103.44048774999828,,,,,,,,,,,,,,,,,,,,,,,,,,,,,,103.4314584590029,103.44048774999828,103.92905637499643,103.92905637499643,104.00354474999767,104.00354474999767,104.00354474999767,104.4972856250024,left,1.047162583003228,None,104.49773762500263,104.4977835000027,None,,,,,,,,,,,,sofia,0,2025-08-22_15h21.11.774,tilt_mocs,2023.2.3,120.87885016276718,2025-08-22 15h21.24.319574 -0400,
0.5,0.0,m2,noss,0,,,,,,,,,0,71,71,595,104.50751075000153,,,,,,,,,,,,,,,,,,,,,,,,,,,,,,104.49820754199754,104.50751075000153,104.9963955839994,104.9963955839994,105.07077316699724,105.07077316699724,105.07077316699724,105.83710404200247,left,1.3241607079980895,None,105.83755237500009,105.83760079200147,None,,,,,,,,,,,,sofia,0,2025-08-22_15h21.11.774,tilt_mocs,2023.2.3,120.87885016276718,2025-08-22 15h21.24.319574 -0400,
7.777777777777779,15.0,p1,poss,100,,,,,,,,,0,72,72,174,105.86261870899762,,,,,,,,,,,,,,,,,,,,,,,,,,,,,,105.83803875000012,105.86261870899762,106.33979033400101,106.33979033400101,106.41246887500165,106.41246887500165,106.41246887500165,106.8134193750011,right,0.943473624996841,None,106.81377858400083,106.81381704199885,None,,,,,,,,,,,,sofia,0,2025-08-22_15h21.11.774,tilt_mocs,2023.2.3,120.87885016276718,2025-08-22 15h21.24.319574 -0400,
-1.9444444444444449,-15.0,m1,negs,100,,,,,,,,,0,73,73,375,106.8229034169999,,,,,,,,,,,,,,,,,,,,,,,,,,,,,,106.81416833399999,106.8229034169999,107.30648258399742,107.30648258399742,107.38681008399726,107.37974725000095,107.37974725000095,107.79751945900352,left,0.973271000002569,None,107.79795708400343,107.79800424999848,None,,,,,,,,,,,,sofia,0,2025-08-22_15h21.11.774,tilt_mocs,2023.2.3,120.87885016276718,2025-08-22 15h21.24.319574 -0400,
8.277777777777779,15.0,p2,poss,100,,,,,,,,,0,74,74,218,107.8072988749991,,,,,,,,,,,,,,,,,,,,,,,,,,,,,,107.79841458400188,107.8072988749991,108.29633487499814,108.29633487499814,108.36980554200272,108.36980554200272,108.36980554200272,108.94694524999795,right,1.1364625839996734,None,108.94737383400206,108.94741995899676,None,,,,,,,,,,,,sofia,0,2025-08-22_15h21.11.774,tilt_mocs,2023.2.3,120.87885016276718,2025-08-22 15h21.24.319574 -0400,
-0.4444444444444446,-15.0,p2,negs,100,,,,,,,,,0,75,75,500,108.95676887500304,,,,,,,,,,,,,,,,,,,,,,,,,,,,,,108.94784100000106,108.95676887500304,109.44597966699803,109.44597966699803,109.52110237500165,109.52110237500165,109.52110237500165,110.03094075000263,left,1.0727536670019617,None,110.03137870899809,110.03142537499662,None,,,,,,,,,,,,sofia,0,2025-08-22_15h21.11.774,tilt_mocs,2023.2.3,120.87885016276718,2025-08-22 15h21.24.319574 -0400,
7.777777777777779,15.0,p1,poss,100,,,,,,,,,0,76,76,190,110.04041370900086,,,,,,,,,,,,,,,,,,,,,,,,,,,,,,110.03177729200252,110.04041370900086,110.52977966699837,110.52977966699837,110.60354629199719,110.60354629199719,110.60354629199719,111.04758820900315,right,1.0055555829967489,None,111.0479860839987,111.04802424999798,None,,,,,,,,,,,,sofia,0,2025-08-22_15h21.11.774,tilt_mocs,2023.2.3,120.87885016276718,2025-08-22 15h21.24.319574 -0400,
6.277777777777779,15.0,m2,poss,100,,,,,,,,,0,77,77,51,111.057087125002,,,,,,,,,,,,,,,,,,,,,,,,,,,,,,111.04836854199675,111.057087125002,111.5451518339978,111.5451518339978,111.61963987500349,111.61963987500349,111.61963987500349,112.15396566699928,right,1.094963875002577,None,112.15432358399994,112.15436166700238,None,,,,,,,,,,,,sofia,0,2025-08-22_15h21.11.774,tilt_mocs,2023.2.3,120.87885016276718,2025-08-22 15h21.24.319574 -0400,
-0.9444444444444446,-15.0,p1,negs,100,,,,,,,,,0,78,78,470,112.16326412500348,,,,,,,,,,,,,,,,,,,,,,,,,,,,,,112.15470254200045,112.16326412500348,112.65812583400111,112.65812583400111,112.72915558399836,112.73610212500353,112.73610212500353,113.18681029199797,left,1.0176080830060528,None,113.18718004199764,113.1872184169988,None,,,,,,,,,,,,sofia,0,2025-08-22_15h21.11.774,tilt_mocs,2023.2.3,120.87885016276718,2025-08-22 15h21.24.319574 -0400,
7.777777777777779,15.0,p1,poss,100,,,,,,,,,0,79,79,160,113.19595950000075,,,,,,,,,,,,,,,,,,,,,,,,,,,,,,113.18757312499656,113.19595950000075,113.69047224999667,113.69047224999667,113.76256925000052,113.76960041699931,113.76960041699931,114.28698799999984,right,1.0865671249994193,None,114.28735041699838,114.28738950000115,None,,,,,,,,,,,,sofia,0,2025-08-22_15h21.11.774,tilt_mocs,2023.2.3,120.87885016276718,2025-08-22 15h21.24.319574 -0400,
-0.9444444444444446,-15.0,p1,negs,100,,,,,,,,,0,80,80,469,114.29685804199835,,,,,,,,,,,,,,,,,,,,,,,,,,,,,,114.28773224999895,114.29685804199835,114.7908891249972,114.7908891249972,114.86263745900214,114.86263745900214,114.86263745900214,115.41393741699721,left,1.1122502080033883,None,115.41437816699909,115.41442612499668,None,,,,,,,,,,,,sofia,0,2025-08-22_15h21.11.774,tilt_mocs,2023.2.3,120.87885016276718,2025-08-22 15h21.24.319574 -0400,
-0.0555555555555553,-15.0,p3,negs,100,,,,,,,,,0,81,81,531,115.42371387500316,,,,,,,,,,,,,,,,,,,,,,,,,,,,,,115.41485270900012,115.42371387500316,115.91242000000057,115.91242000000057,115.98717749999923,115.98717749999923,115.98717749999923,116.4394676669981,left,1.0061057499988237,None,116.4398400420032,116.43987812499836,None,,,,,,,,,,,,sofia,0,2025-08-22_15h21.11.774,tilt_mocs,2023.2.3,120.87885016276718,2025-08-22 15h21.24.319574 -0400,
6.277777777777779,15.0,m2,poss,100,,,,,,,,,0,82,82,65,116.44687312500173,,,,,,,,,,,,,,,,,,,,,,,,,,,,,,116.44021924999834,116.44687312500173,116.93989204199897,116.93989204199897,117.01258300000336,117.01258300000336,117.01258300000336,118.34666804200242,right,1.8900717080032337,None,118.34708412500186,118.34712362499704,None,,,,,,,,,,,,sofia,0,2025-08-22_15h21.11.774,tilt_mocs,2023.2.3,120.87885016276718,2025-08-22 15h21.24.319574 -0400,
7.277777777777779,15.0,PSE,poss,100,,,,,,,,,0,83,83,151,118.35380562500359,,,,,,,,,,,,,,,,,,,,,,,,,,,,,,118.34747079200315,118.35380562500359,118.84053904200118,118.84053904200118,118.92028683399985,118.91316645900224,118.91316645900224,119.32095595900319,right,0.9623415419991943,None,119.3213265000013,119.32136562500091,None,,,,,,,,,,,,sofia,0,2025-08-22_15h21.11.774,tilt_mocs,2023.2.3,120.87885016276718,2025-08-22 15h21.24.319574 -0400,
-2.9444444444444446,-15.0,m3,negs,100,,,,,,,,,0,84,84,304,119.34605566700338,,,,,,,,,,,,,,,,,,,,,,,,,,,,,,119.32170908399712,119.34605566700338,119.8242303750012,119.8242303750012,119.895950584003,119.90283933399769,119.90283933399769,120.38086987499992,left,1.0264030840044143,None,120.38123870900017,120.38127574999817,None,,,,,,,,,,,,sofia,0,2025-08-22_15h21.11.774,tilt_mocs,2023.2.3,120.87885016276718,2025-08-22 15h21.24.319574 -0400,
2.5,0.0,p2,noss,0,,,,,,,,,0,85,85,665,120.39033416700113,,,,,,,,,,,,,,,,,,,,,,,,,,,,,,120.38163616700331,120.39033416700113,120.87944379200053,120.87944379200053,120.95444312500331,120.95444312500331,120.95444312500331,121.44759266699839,right,1.0522965409982135,None,121.44798579200142,121.44802441699721,None,,,,,,,,,,,,sofia,0,2025-08-22_15h21.11.774,tilt_mocs,2023.2.3,120.87885016276718,2025-08-22 15h21.24.319574 -0400,
-0.4444444444444446,-15.0,p2,negs,100,,,,,,,,,0,86,86,504,121.45715475000179,,,,,,,,,,,,,,,,,,,,,,,,,,,,,,121.4483899170009,121.45715475000179,121.94687962500029,121.94687962500029,122.02080895900144,122.02080895900144,122.02080895900144,122.43722508400242,left,0.9750670830035233,None,122.43760437500168,122.43764424999972,None,,,,,,,,,,,,sofia,0,2025-08-22_15h21.11.774,tilt_mocs,2023.2.3,120.87885016276718,2025-08-22 15h21.24.319574 -0400,
-1.9444444444444449,-15.0,m1,negs,100,,,,,,,,,0,87,87,397,122.44674754200241,,,,,,,,,,,,,,,,,,,,,,,,,,,,,,122.43800487500266,122.44674754200241,122.94018487499852,122.94018487499852,123.01266229199973,123.01959141700354,123.01959141700354,123.46362737500021,left,1.0090758340011234,None,123.46398445899831,123.46402133400261,None,,,,,,,,,,,,sofia,0,2025-08-22_15h21.11.774,tilt_mocs,2023.2.3,120.87885016276718,2025-08-22 15h21.24.319574 -0400,
0.5,0.0,m2,noss,0,,,,,,,,,0,88,88,598,123.47316254200268,,,,,,,,,,,,,,,,,,,,,,,,,,,,,,123.46436250000261,123.47316254200268,123.95740620900324,123.95740620900324,124.03751012500288,124.02986137499829,124.02986137499829,124.49818287500239,left,1.023372042000119,None,124.49868283399701,124.49873470899911,None,,,,,,,,,,,,sofia,0,2025-08-22_15h21.11.774,tilt_mocs,2023.2.3,120.87885016276718,2025-08-22 15h21.24.319574 -0400,
7.277777777777779,15.0,PSE,poss,100,,,,,,,,,0,89,89,158,124.50528583399864,,,,,,,,,,,,,,,,,,,,,,,,,,,,,,124.49918645899743,124.50528583399864,124.99654945899965,124.99654945899965,125.06874450000032,125.06874450000032,125.06874450000032,125.49716137500218,right,0.9818379999996978,None,125.49737679200189,125.49739445900195,None,,,,,,,,,,,,sofia,0,2025-08-22_15h21.11.774,tilt_mocs,2023.2.3,120.87885016276718,2025-08-22 15h21.24.319574 -0400,
2.5,0.0,p2,noss,0,,,,,,,,,0,90,90,677,125.50427766700159,,,,,,,,,,,,,,,,,,,,,,,,,,,,,,125.49754920900159,125.50427766700159,125.99049020899838,125.99049020899838,126.07155270899966,126.07155270899966,126.07155270899966,126.5045990840008,left,0.9933410000012373,None,126.5049673340036,126.50500599999941,None,,,,,,,,,,,,sofia,0,2025-08-22_15h21.11.774,tilt_mocs,2023.2.3,120.87885016276718,2025-08-22 15h21.24.319574 -0400,
-2.4444444444444446,-15.0,m2,negs,100,,,,,,,,,0,91,91,352,126.52951220900286,,,,,,,,,,,,,,,,,,,,,,,,,,,,,,126.50535629200022,126.52951220900286,127.00703016699845,127.00703016699845,127.0793905419996,127.0793905419996,127.0793905419996,127.53681345900259,left,1.0007286660038517,None,127.5371682920013,127.53720566700213,None,,,,,,,,,,,,sofia,0,2025-08-22_15h21.11.774,tilt_mocs,2023.2.3,120.87885016276718,2025-08-22 15h21.24.319574 -0400,
0.5,0.0,m2,noss,0,,,,,,,,,0,92,92,585,127.54609670899663,,,,,,,,,,,,,,,,,,,,,,,,,,,,,,127.53754233400105,127.54609670899663,128.03998470900115,128.03998470900115,128.11269454199646,128.11269454199646,128.11269454199646,128.56402308399993,left,1.0117211250035325,None,128.56439162499737,128.5644306250033,None,,,,,,,,,,,,sofia,0,2025-08-22_15h21.11.774,tilt_mocs,2023.2.3,120.87885016276718,2025-08-22 15h21.24.319574 -0400,
5.777777777777779,15.0,m3,poss,100,,,,,,,,,0,93,93,28,128.5735361249972,,,,,,,,,,,,,,,,,,,,,,,,,,,,,,128.56478258399875,128.5735361249972,129.06311675000325,129.06311675000325,129.13746241699846,129.13746241699846,129.13746241699846,129.58069458400132,right,1.0000565420050407,None,129.58104695899965,129.58108375000302,None,,,,,,,,,,,,sofia,0,2025-08-22_15h21.11.774,tilt_mocs,2023.2.3,120.87885016276718,2025-08-22 15h21.24.319574 -0400,
7.277777777777779,15.0,PSE,poss,100,,,,,,,,,0,94,94,145,129.5897234590011,,,,,,,,,,,,,,,,,,,,,,,,,,,,,,129.58143087499775,129.5897234590011,130.07949162500154,130.07949162500154,130.15477854199708,130.15477854199708,130.15477854199708,130.56363462500303,right,0.9673146249988349,None,130.56402716699813,130.56407554200268,None,,,,,,,,,,,,sofia,0,2025-08-22_15h21.11.774,tilt_mocs,2023.2.3,120.87885016276718,2025-08-22 15h21.24.319574 -0400,
5.777777777777779,15.0,m3,poss,100,,,,,,,,,0,95,95,14,130.57356454199908,,,,,,,,,,,,,,,,,,,,,,,,,,,,,,130.5644986249972,130.57356454199908,131.0567136669997,131.0567136669997,131.1376961249989,131.12996374999784,131.12996374999784,131.8142286250004,right,1.230545832993812,None,131.81466116700176,131.81471008399967,None,,,,,,,,,,,,sofia,0,2025-08-22_15h21.11.774,tilt_mocs,2023.2.3,120.87885016276718,2025-08-22 15h21.24.319574 -0400,
8.777777777777779,15.0,p3,poss,100,,,,,,,,,0,96,96,276,131.82416195899714,,,,,,,,,,,,,,,,,,,,,,,,,,,,,,131.81514245900325,131.82416195899714,132.31289562500024,132.31289562500024,132.38782291700045,132.38782291700045,132.38782291700045,132.81405858400103,right,0.9817364999980782,None,132.8145032090033,132.8145511670009,None,,,,,,,,,,,,sofia,0,2025-08-22_15h21.11.774,tilt_mocs,2023.2.3,120.87885016276718,2025-08-22 15h21.24.319574 -0400,
-0.4444444444444446,-15.0,p2,negs,100,,,,,,,,,0,97,97,514,132.82380995900166,,,,,,,,,,,,,,,,,,,,,,,,,,,,,,132.81496591700125,132.82380995900166,133.3295995419976,133.3295995419976,133.38799350000045,133.40208337499644,133.40208337499644,133.83751137500076,left,1.0120122500011348,None,133.83793875000265,133.83798620900052,None,,,,,,,,,,,,sofia,0,2025-08-22_15h21.11.774,tilt_mocs,2023.2.3,120.87885016276718,2025-08-22 15h21.24.319574 -0400,
-2.4444444444444446,-15.0,m2,negs,100,,,,,,,,,0,98,98,351,133.86295520899876,,,,,,,,,,,,,,,,,,,,,,,,,,,,,,133.8384014589974,133.86295520899876,134.34091808400262,134.34091808400262,134.41272433399718,134.42011820899643,134.42011820899643,134.8476437499994,left,0.9833071660032147,None,134.84807670900045,134.8481245419971,None,,,,,,,,,,,,sofia,0,2025-08-22_15h21.11.774,tilt_mocs,2023.2.3,120.87885016276718,2025-08-22 15h21.24.319574 -0400,
-0.9444444444444446,-15.0,p1,negs,100,,,,,,,,,0,99,99,449,134.8572865419992,,,,,,,,,,,,,,,,,,,,,,,,,,,,,,134.84854033400188,134.8572865419992,135.34573708399694,135.34573708399694,135.42075625000143,135.42075625000143,135.42075625000143,135.887218459,left,1.0244715410008212,None,135.88759070899687,135.88762937499996,None,,,,,,,,,,,,sofia,0,2025-08-22_15h21.11.774,tilt_mocs,2023.2.3,120.87885016276718,2025-08-22 15h21.24.319574 -0400,
-0.0555555555555553,-15.0,p3,negs,100,,,,,,,,,0,100,100,533,135.91293429199868,,,,,,,,,,,,,,,,,,,,,,,,,,,,,,135.88799200000358,135.91293429199868,136.39054954199673,136.39054954199673,136.4628371669969,136.4628371669969,136.4628371669969,136.9142788340032,left,1.0000632079973002,None,136.91470950000075,138.56412633400032,space,136.92373408399726,136.92373408399726,1.6318749579950236,None,,,,,,,,sofia,0,2025-08-22_15h21.11.774,tilt_mocs,2023.2.3,120.87885016276718,2025-08-22 15h21.24.319574 -0400,
-2.9444444444444446,-15.0,m3,negs,100,,,,,,,,,0,101,101,295,138.57473816700076,,,,,,,,,,,,,,,,,,,,,,,,,,,,,,138.56487333399855,138.57473816700076,139.0634974170025,139.0634974170025,139.13724104200082,139.13724104200082,139.13724104200082,139.65420558400365,left,1.0773497909976868,None,139.6545602920014,139.65460025000357,None,,,,,,,,,,,,sofia,0,2025-08-22_15h21.11.774,tilt_mocs,2023.2.3,120.87885016276718,2025-08-22 15h21.24.319574 -0400,
8.777777777777779,15.0,p3,poss,100,,,,,,,,,0,102,102,253,139.66382145899843,,,,,,,,,,,,,,,,,,,,,,,,,,,,,,139.654940542001,139.66382145899843,140.15775133400166,140.15775133400166,140.2295437089997,140.23657658400043,140.23657658400043,140.74756712499948,right,1.0751178749997052,None,140.74801445900084,140.7480625840035,None,,,,,,,,,,,,sofia,0,2025-08-22_15h21.11.774,tilt_mocs,2023.2.3,120.87885016276718,2025-08-22 15h21.24.319574 -0400,
5.777777777777779,15.0,m3,poss,100,,,,,,,,,0,103,103,20,140.75742954199814,,,,,,,,,,,,,,,,,,,,,,,,,,,,,,140.74848575000215,140.75742954199814,141.2462250000026,141.2462250000026,141.32050320899725,141.32050320899725,141.32050320899725,141.8213298749979,right,1.0626479169950471,None,141.82168800000363,141.82172645899846,None,,,,,,,,,,,,sofia,0,2025-08-22_15h21.11.774,tilt_mocs,2023.2.3,120.87885016276718,2025-08-22 15h21.24.319574 -0400,
8.277777777777779,15.0,p2,poss,100,,,,,,,,,0,104,104,215,141.84636012499686,,,,,,,,,,,,,,,,,,,,,,,,,,,,,,141.8220866670017,141.84636012499686,142.32432162499754,142.32432162499754,142.39615675000096,142.40310687499732,142.40310687499732,142.8639542919991,right,1.0113216660029138,None,142.8643108749966,142.86434837499837,None,,,,,,,,,,,,sofia,0,2025-08-22_15h21.11.774,tilt_mocs,2023.2.3,120.87885016276718,2025-08-22 15h21.24.319574 -0400,
-1.9444444444444449,-15.0,m1,negs,100,,,,,,,,,0,105,105,388,142.87328504199832,,,,,,,,,,,,,,,,,,,,,,,,,,,,,,142.8646964169966,142.87328504199832,143.35786375000316,143.35786375000316,143.43753724999988,143.43753724999988,143.43753724999988,143.85460229199816,left,0.9753307499995572,None,143.8550357089989,143.85508266700344,None,,,,,,,,,,,,sofia,0,2025-08-22_15h21.11.774,tilt_mocs,2023.2.3,120.87885016276718,2025-08-22 15h21.24.319574 -0400,
-1.4444444444444446,-15.0,PSE,negs,100,,,,,,,,,0,106,106,410,143.8646848749995,,,,,,,,,,,,,,,,,,,,,,,,,,,,,,143.8554965000003,143.8646848749995,144.35778729199956,144.35778729199956,144.42945895899902,144.43626687500364,144.43626687500364,144.93762900000002,left,1.0674854579992825,None,144.93807237500005,144.93812058400363,None,,,,,,,,,,,,sofia,0,2025-08-22_15h21.11.774,tilt_mocs,2023.2.3,120.87885016276718,2025-08-22 15h21.24.319574 -0400,
-1.4444444444444446,-15.0,PSE,negs,100,,,,,,,,,0,107,107,432,144.96301304199733,,,,,,,,,,,,,,,,,,,,,,,,,,,,,,144.93853791699803,144.96301304199733,145.4399564589985,145.4399564589985,145.5129858750006,145.5129858750006,145.5129858750006,146.3808236670011,left,1.416479084000457,None,146.3812501249995,146.3812967920021,None,,,,,,,,,,,,sofia,0,2025-08-22_15h21.11.774,tilt_mocs,2023.2.3,120.87885016276718,2025-08-22 15h21.24.319574 -0400,
8.277777777777779,15.0,p2,poss,100,,,,,,,,,0,108,108,238,146.39089512499777,,,,,,,,,,,,,,,,,,,,,,,,,,,,,,146.38170495899976,146.39089512499777,146.87921050000296,146.87921050000296,146.95339304200024,146.95339304200024,146.95339304200024,147.3375963340004,right,0.9450374579973868,None,147.33794787499937,147.33798625000054,None,,,,,,,,,,,,sofia,0,2025-08-22_15h21.11.774,tilt_mocs,2023.2.3,120.87885016276718,2025-08-22 15h21.24.319574 -0400,
2.0,0.0,p1,noss,0,,,,,,,,,0,109,109,646,147.3470016670035,,,,,,,,,,,,,,,,,,,,,,,,,,,,,,147.33832195900322,147.3470016670035,147.84119716699934,147.84119716699934,147.91292462500132,147.91986029200052,147.91986029200052,148.51458104199992,left,1.1661841250024736,None,148.51501391700003,148.51506241699826,None,,,,,,,,,,,,sofia,0,2025-08-22_15h21.11.774,tilt_mocs,2023.2.3,120.87885016276718,2025-08-22 15h21.24.319574 -0400,
-1.4444444444444446,-15.0,PSE,negs,100,,,,,,,,,0,110,110,401,148.5246034169977,,,,,,,,,,,,,,,,,,,,,,,,,,,,,,148.51547637500335,148.5246034169977,149.0299594169992,149.0299594169992,149.0877350419978,149.10197804200288,149.10197804200288,149.52121091700246,left,0.9927610410013585,None,149.52165091699862,149.5217002089994,None,,,,,,,,,,,,sofia,0,2025-08-22_15h21.11.774,tilt_mocs,2023.2.3,120.87885016276718,2025-08-22 15h21.24.319574 -0400,
8.777777777777779,15.0,p3,poss,100,,,,,,,,,0,111,111,257,149.54642683400016,,,,,,,,,,,,,,,,,,,,,,,,,,,,,,149.52212608399714,149.54642683400016,150.02426299999934,150.02426299999934,150.09630254199874,150.1032395000002,150.1032395000002,150.58085816699895,right,1.0314009999929112,None,150.58128012499947,150.58132416699664,None,,,,,,,,,,,,sofia,0,2025-08-22_15h21.11.774,tilt_mocs,2023.2.3,120.87885016276718,2025-08-22 15h21.24.319574 -0400,
7.777777777777779,15.0,p1,poss,100,,,,,,,,,0,112,112,164,150.59084958399762,,,,,,,,,,,,,,,,,,,,,,,,,,,,,,150.58173754200106,150.59084958399762,151.0791533340016,151.0791533340016,151.15486650000094,151.15486650000094,151.15486650000094,151.6305800839982,right,1.036288750001404,None,151.63099895900086,151.631043166999,None,,,,,,,,,,,,sofia,0,2025-08-22_15h21.11.774,tilt_mocs,2023.2.3,120.87885016276718,2025-08-22 15h21.24.319574 -0400,
2.0,0.0,p1,noss,0,,,,,,,,,0,113,113,642,151.6402289589969,,,,,,,,,,,,,,,,,,,,,,,,,,,,,,151.6314539590021,151.6402289589969,152.1234390000027,152.1234390000027,152.20466791700164,152.19693820900284,152.19693820900284,153.79809333400044,left,2.156467666995013,None,153.79852254199795,153.79857008399995,None,,,,,,,,,,,,sofia,0,2025-08-22_15h21.11.774,tilt_mocs,2023.2.3,120.87885016276718,2025-08-22 15h21.24.319574 -0400,
1.0,0.0,m1,noss,0,,,,,,,,,0,114,114,600,153.80850495900086,,,,,,,,,,,,,,,,,,,,,,,,,,,,,,153.79898225000215,153.80850495900086,154.29639250000037,154.29639250000037,154.37077254200267,154.37077254200267,154.37077254200267,154.9807284999988,left,1.1645393340004375,None,154.98115533399687,154.98120175000076,None,,,,,,,,,,,,sofia,0,2025-08-22_15h21.11.774,tilt_mocs,2023.2.3,120.87885016276718,2025-08-22 15h21.24.319574 -0400,
7.777777777777779,15.0,p1,poss,100,,,,,,,,,0,115,115,180,154.990446333999,,,,,,,,,,,,,,,,,,,,,,,,,,,,,,154.9816280419982,154.990446333999,155.4741942499968,155.4741942499968,155.55362691699702,155.55362691699702,155.55362691699702,155.9309505420024,right,0.9311799580027582,None,155.93137970899988,155.93142587500188,None,,,,,,,,,,,,sofia,0,2025-08-22_15h21.11.774,tilt_mocs,2023.2.3,120.87885016276718,2025-08-22 15h21.24.319574 -0400,
-0.4444444444444446,-15.0,p2,negs,100,,,,,,,,,0,116,116,509,155.94127491700056,,,,,,,,,,,,,,,,,,,,,,,,,,,,,,155.93183679199865,155.94127491700056,156.4296784170001,156.4296784170001,156.50436395900033,156.50436395900033,156.50436395900033,156.92137312499835,left,0.9763877080040402,None,156.9217406250027,156.9217790420007,None,,,,,,,,,,,,sofia,0,2025-08-22_15h21.11.774,tilt_mocs,2023.2.3,120.87885016276718,2025-08-22 15h21.24.319574 -0400,
-0.0555555555555553,-15.0,p3,negs,100,,,,,,,,,0,117,117,542,156.94664699999703,,,,,,,,,,,,,,,,,,,,,,,,,,,,,,156.92213962499955,156.94664699999703,157.42333495899948,157.42333495899948,157.4964005840011,157.4964005840011,157.4964005840011,158.46431229200243,left,1.5093924590037204,None,158.46474675000354,158.46479445900331,None,,,,,,,,,,,,sofia,0,2025-08-22_15h21.11.774,tilt_mocs,2023.2.3,120.87885016276718,2025-08-22 15h21.24.319574 -0400,
3.0,0.0,p3,noss,0,,,,,,,,,0,118,118,680,158.47470179200172,,,,,,,,,,,,,,,,,,,,,,,,,,,,,,158.46521962500265,158.47470179200172,158.95666587499727,158.95666587499727,159.03816462500254,159.03030600000056,159.03030600000056,159.46452516700083,right,0.9810147919997689,None,159.46495541700278,159.46499975000188,None,,,,,,,,,,,,sofia,0,2025-08-22_15h21.11.774,tilt_mocs,2023.2.3,120.87885016276718,2025-08-22 15h21.24.319574 -0400,
-1.9444444444444449,-15.0,m1,negs,100,,,,,,,,,0,119,119,368,159.47477008400165,,,,,,,,,,,,,,,,,,,,,,,,,,,,,,159.46540837499924,159.47477008400165,159.96411470900057,159.96411470900057,160.0383152919967,160.0383152919967,160.0383152919967,160.52447291700082,left,1.0390867500027525,None,160.5249288749983,160.52497629199934,None,,,,,,,,,,,,sofia,0,2025-08-22_15h21.11.774,tilt_mocs,2023.2.3,120.87885016276718,2025-08-22 15h21.24.319574 -0400,
-1.4444444444444446,-15.0,PSE,negs,100,,,,,,,,,0,120,120,424,160.53271220900206,,,,,,,,,,,,,,,,,,,,,,,,,,,,,,160.5253878750009,160.53271220900206,161.02371212500293,161.02371212500293,161.104872584001,161.09696416700172,161.09696416700172,161.55492454199702,left,1.0165918750062701,None,161.5553541670015,161.55540108399873,None,,,,,,,,,,,,sofia,0,2025-08-22_15h21.11.774,tilt_mocs,2023.2.3,120.87885016276718,2025-08-22 15h21.24.319574 -0400,
-0.4444444444444446,-15.0,p2,negs,100,,,,,,,,,0,121,121,491,161.56483654199837,,,,,,,,,,,,,,,,,,,,,,,,,,,,,,161.5558334169982,161.56483654199837,162.05775433399685,162.05775433399685,162.129764917001,162.129764917001,162.129764917001,162.93782625000313,left,1.368770458000654,None,162.9382614999995,162.9383092499993,None,,,,,,,,,,,,sofia,0,2025-08-22_15h21.11.774,tilt_mocs,2023.2.3,120.87885016276718,2025-08-22 15h21.24.319574 -0400,
-0.4444444444444446,-15.0,p2,negs,100,,,,,,,,,0,122,122,490,162.96321737499966,,,,,,,,,,,,,,,,,,,,,,,,,,,,,,162.93872354199993,162.96321737499966,163.44123837500229,163.44123837500229,163.513114166999,163.513114166999,163.513114166999,164.73095266699966,right,1.7619328329965356,None,164.7313878749992,164.7314420420007,None,,,,,,,,,,,,sofia,0,2025-08-22_15h21.11.774,tilt_mocs,2023.2.3,120.87885016276718,2025-08-22 15h21.24.319574 -0400,
-0.9444444444444446,-15.0,p1,negs,100,,,,,,,,,0,123,123,471,164.74114666700189,,,,,,,,,,,,,,,,,,,,,,,,,,,,,,164.7318527919997,164.74114666700189,165.22928045900335,165.22928045900335,165.30356145899714,165.30356145899714,165.30356145899714,166.00495437499922,left,1.2588149580042227,None,166.0054022089971,166.00545237500046,None,,,,,,,,,,,,sofia,0,2025-08-22_15h21.11.774,tilt_mocs,2023.2.3,120.87885016276718,2025-08-22 15h21.24.319574 -0400,
1.0,0.0,m1,noss,0,,,,,,,,,0,124,124,614,166.01486866699997,,,,,,,,,,,,,,,,,,,,,,,,,,,,,,166.0058700419977,166.01486866699997,166.50809604200185,166.50809604200185,166.57984108399978,166.57984108399978,166.57984108399978,167.55436458400072,right,1.5343391250062268,None,167.55472741700214,167.55476674999954,None,,,,,,,,,,,,sofia,0,2025-08-22_15h21.11.774,tilt_mocs,2023.2.3,120.87885016276718,2025-08-22 15h21.24.319574 -0400,
6.777777777777779,15.0,m1,poss,100,,,,,,,,,0,125,125,114,167.56351866699697,,,,,,,,,,,,,,,,,,,,,,,,,,,,,,167.5551089590008,167.56351866699697,168.05722604200128,168.05722604200128,168.12987487499777,168.12987487499777,168.12987487499777,168.61465795899858,right,1.0408633749975706,None,168.61508716700337,168.61513274999743,None,,,,,,,,,,,,sofia,0,2025-08-22_15h21.11.774,tilt_mocs,2023.2.3,120.87885016276718,2025-08-22 15h21.24.319574 -0400,
7.277777777777779,15.0,PSE,poss,100,,,,,,,,,0,126,126,139,168.6246283340006,,,,,,,,,,,,,,,,,,,,,,,,,,,,,,168.6155460000009,168.6246283340006,169.11323224999796,169.11323224999796,169.1875366250024,169.1875366250024,169.1875366250024,169.56429729200318,right,0.9307981669990113,None,169.56472570900223,169.56477150000137,None,,,,,,,,,,,,sofia,0,2025-08-22_15h21.11.774,tilt_mocs,2023.2.3,120.87885016276718,2025-08-22 15h21.24.319574 -0400,
6.777777777777779,15.0,m1,poss,100,,,,,,,,,0,127,127,93,169.57405358400138,,,,,,,,,,,,,,,,,,,,,,,,,,,,,,169.56521633399825,169.57405358400138,170.05799079199642,170.05799079199642,170.13781237499643,170.13781237499643,170.13781237499643,170.51448991699726,right,0.9351605830015615,None,170.51491279200127,170.51495908400102,None,,,,,,,,,,,,sofia,0,2025-08-22_15h21.11.774,tilt_mocs,2023.2.3,120.87885016276718,2025-08-22 15h21.24.319574 -0400,
-0.4444444444444446,-15.0,p2,negs,100,,,,,,,,,0,128,128,511,170.52454533400305,,,,,,,,,,,,,,,,,,,,,,,,,,,,,,170.5153721250026,170.52454533400305,171.01302054199914,171.01302054199914,171.0881617920022,171.0881617920022,171.0881617920022,171.63792400000239,left,1.1069727499998407,None,171.6382781249995,171.63831712499814,None,,,,,,,,,,,,sofia,0,2025-08-22_15h21.11.774,tilt_mocs,2023.2.3,120.87885016276718,2025-08-22 15h21.24.319574 -0400,
1.5,0.0,PSE,noss,0,,,,,,,,,0,129,129,623,171.64734245900036,,,,,,,,,,,,,,,,,,,,,,,,,,,,,,171.63866637500178,171.64734245900036,172.14023408399953,172.14023408399953,172.2132554589989,172.2132554589989,172.2132554589989,173.1551810000019,right,1.503567457999452,None,173.15564141699724,173.15569174999837,None,,,,,,,,,,,,sofia,0,2025-08-22_15h21.11.774,tilt_mocs,2023.2.3,120.87885016276718,2025-08-22 15h21.24.319574 -0400,
7.777777777777779,15.0,p1,poss,100,,,,,,,,,0,130,130,186,173.16508979199716,,,,,,,,,,,,,,,,,,,,,,,,,,,,,,173.15609729199787,173.16508979199716,173.65678075000324,173.65678075000324,173.73016700000153,173.73016700000153,173.73016700000153,174.30421112500335,right,1.1355204159990535,None,174.30456937500276,174.30460795899853,None,,,,,,,,,,,,sofia,0,2025-08-22_15h21.11.774,tilt_mocs,2023.2.3,120.87885016276718,2025-08-22 15h21.24.319574 -0400,
-0.0555555555555553,-15.0,p3,negs,100,,,,,,,,,0,131,131,555,174.31354283400287,,,,,,,,,,,,,,,,,,,,,,,,,,,,,,174.3049640840036,174.31354283400287,174.80690116700134,174.80690116700134,174.87985687499895,174.87985687499895,174.87985687499895,175.66426533400227,left,1.3417408329987666,None,175.6646267920005,175.66466554199724,None,,,,,,,,,,,,sofia,0,2025-08-22_15h21.11.774,tilt_mocs,2023.2.3,120.87885016276718,2025-08-22 15h21.24.319574 -0400,
-2.4444444444444446,-15.0,m2,negs,100,,,,,,,,,0,132,132,347,175.673863875003,,,,,,,,,,,,,,,,,,,,,,,,,,,,,,175.6650052499972,175.673863875003,176.1579597500022,176.1579597500022,176.2376373750012,176.2376373750012,176.2376373750012,176.8813775000017,left,1.1974540839946712,None,176.88175108400173,176.8817896670007,None,,,,,,,,,,,,sofia,0,2025-08-22_15h21.11.774,tilt_mocs,2023.2.3,120.87885016276718,2025-08-22 15h21.24.319574 -0400,
-2.9444444444444446,-15.0,m3,negs,100,,,,,,,,,0,133,133,284,176.89084504199855,,,,,,,,,,,,,,,,,,,,,,,,,,,,,,176.8821449169991,176.89084504199855,177.3799224999966,177.3799224999966,177.45440362500085,177.45440362500085,177.45440362500085,177.92219545900298,left,1.0299638330034213,None,177.92259816700243,177.92263687500235,None,,,,,,,,,,,,sofia,0,2025-08-22_15h21.11.774,tilt_mocs,2023.2.3,120.87885016276718,2025-08-22 15h21.24.319574 -0400,
3.0,0.0,p3,noss,0,,,,,,,,,0,134,134,681,177.93181845900108,,,,,,,,,,,,,,,,,,,,,,,,,,,,,,177.92297558399878,177.93181845900108,178.4244179169982,178.4244179169982,178.49659616700228,178.49659616700228,178.49659616700228,178.98818608400325,right,1.0500581669984967,None,178.9885410420029,178.98857883400342,None,,,,,,,,,,,,sofia,0,2025-08-22_15h21.11.774,tilt_mocs,2023.2.3,120.87885016276718,2025-08-22 15h21.24.319574 -0400,
1.0,0.0,m1,noss,0,,,,,,,,,0,135,135,601,179.01345508400118,,,,,,,,,,,,,,,,,,,,,,,,,,,,,,178.9889117499988,179.01345508400118,179.49115537499893,179.49115537499893,179.56330958400213,179.56330958400213,179.56330958400213,180.1648453750022,left,1.142651708003541,None,180.1652061249988,180.16524466699775,None,,,,,,,,,,,,sofia,0,2025-08-22_15h21.11.774,tilt_mocs,2023.2.3,120.87885016276718,2025-08-22 15h21.24.319574 -0400,
5.777777777777779,15.0,m3,poss,100,,,,,,,,,0,136,136,9,180.17432833399653,,,,,,,,,,,,,,,,,,,,,,,,,,,,,,180.16558366700338,180.17432833399653,180.66327058400202,180.66327058400202,180.73660375000327,180.73660375000327,180.73660375000327,181.35525070899894,right,1.1776979999995092,None,181.35570129199914,181.35575070900086,None,,,,,,,,,,,,sofia,0,2025-08-22_15h21.11.774,tilt_mocs,2023.2.3,120.87885016276718,2025-08-22 15h21.24.319574 -0400,
7.777777777777779,15.0,p1,poss,100,,,,,,,,,0,137,137,167,181.36508624999988,,,,,,,,,,,,,,,,,,,,,,,,,,,,,,181.35614887499833,181.36508624999988,181.85752024999965,181.85752024999965,181.93018708399904,181.93679120900197,181.93679120900197,182.348046334002,right,0.9815473330017994,None,182.34848041700025,182.34852845899877,None,,,,,,,,,,,,sofia,0,2025-08-22_15h21.11.774,tilt_mocs,2023.2.3,120.87885016276718,2025-08-22 15h21.24.319574 -0400,
-0.0555555555555553,-15.0,p3,negs,100,,,,,,,,,0,138,138,534,182.35764191699855,,,,,,,,,,,,,,,,,,,,,,,,,,,,,,182.34891104199778,182.35764191699855,182.84757541699946,182.84757541699946,182.92159350000293,182.92159350000293,182.92159350000293,183.7056845420011,left,1.3461860419993172,None,183.70607612500316,183.70611308400112,None,,,,,,,,,,,,sofia,0,2025-08-22_15h21.11.774,tilt_mocs,2023.2.3,120.87885016276718,2025-08-22 15h21.24.319574 -0400,
7.277777777777779,15.0,PSE,poss,100,,,,,,,,,0,139,139,131,183.71534587500355,,,,,,,,,,,,,,,,,,,,,,,,,,,,,,183.7064576249977,183.71534587500355,184.20684549999714,184.20684549999714,184.28006420900056,184.28006420900056,184.28006420900056,184.88162054200075,right,1.164998291998927,None,184.8820448339975,184.88208979200135,None,,,,,,,,,,,,sofia,0,2025-08-22_15h21.11.774,tilt_mocs,2023.2.3,120.87885016276718,2025-08-22 15h21.24.319574 -0400,
-1.9444444444444449,-15.0,m1,negs,100,,,,,,,,,0,140,140,395,184.89156487499713,,,,,,,,,,,,,,,,,,,,,,,,,,,,,,184.88250008400064,184.89156487499713,185.3802179589984,185.3802179589984,185.45464175000234,185.45464175000234,185.45464175000234,185.9883399169994,left,1.0941950410051504,None,185.98877287500363,185.98881991700182,None,,,,,,,,,,,,sofia,0,2025-08-22_15h21.11.774,tilt_mocs,2023.2.3,120.87885016276718,2025-08-22 15h21.24.319574 -0400,
1.5,0.0,PSE,noss,0,,,,,,,,,0,141,141,626,185.99918216699734,,,,,,,,,,,,,,,,,,,,,,,,,,,,,,185.98922250000032,185.99918216699734,186.49159766700177,186.49159766700177,186.56335079199926,186.57019208400015,186.57019208400015,187.05547933399794,left,1.0525962920000893,None,187.05592225000146,187.05597025000316,None,,,,,,,,,,,,sofia,0,2025-08-22_15h21.11.774,tilt_mocs,2023.2.3,120.87885016276718,2025-08-22 15h21.24.319574 -0400,
0.0,0.0,m3,noss,0,,,,,,,,,0,142,142,572,187.06548312499945,,,,,,,,,,,,,,,,,,,,,,,,,,,,,,187.05637574999855,187.06548312499945,187.5574153339985,187.5574153339985,187.6300726249974,187.6300726249974,187.6300726249974,188.03815120900254,left,0.96838658300112,None,188.0385955419988,188.0386444589967,None,,,,,,,,,,,,sofia,0,2025-08-22_15h21.11.774,tilt_mocs,2023.2.3,120.87885016276718,2025-08-22 15h21.24.319574 -0400,
-2.4444444444444446,-15.0,m2,negs,100,,,,,,,,,0,143,143,359,188.06367175000196,,,,,,,,,,,,,,,,,,,,,,,,,,,,,,188.0390884590015,188.06367175000196,188.5406967500021,188.5406967500021,188.6134699999966,188.6134699999966,188.6134699999966,189.14820795899868,left,1.0752036670019152,None,189.1486387920013,189.14868491700327,None,,,,,,,,,,,,sofia,0,2025-08-22_15h21.11.774,tilt_mocs,2023.2.3,120.87885016276718,2025-08-22 15h21.24.319574 -0400,
8.777777777777779,15.0,p3,poss,100,,,,,,,,,0,144,144,261,189.15797483400092,,,,,,,,,,,,,,,,,,,,,,,,,,,,,,189.14909479200287,189.15797483400092,189.6467525420012,189.6467525420012,189.72107991699886,189.72107991699886,189.72107991699886,190.0708916250005,right,0.9061465830018278,None,190.07125108400214,190.07128974999796,None,,,,,,,,,,,,sofia,0,2025-08-22_15h21.11.774,tilt_mocs,2023.2.3,120.87885016276718,2025-08-22 15h21.24.319574 -0400,
-0.4444444444444446,-15.0,p2,negs,100,,,,,,,,,0,145,145,513,190.08034204199794,,,,,,,,,,,,,,,,,,,,,,,,,,,,,,190.07163383399893,190.08034204199794,190.57469475000107,190.57469475000107,190.64677558399853,190.6537712499994,190.6537712499994,191.1380336250004,left,1.0561422500031767,None,191.13838991700322,191.13842816700344,None,,,,,,,,,,,,sofia,0,2025-08-22_15h21.11.774,tilt_mocs,2023.2.3,120.87885016276718,2025-08-22 15h21.24.319574 -0400,
2.0,0.0,p1,noss,0,,,,,,,,,0,146,146,655,191.1476487089967,,,,,,,,,,,,,,,,,,,,,,,,,,,,,,191.1387590000013,191.1476487089967,191.64067475000047,191.64067475000047,191.71342033400288,191.71342033400288,191.71342033400288,192.26485308400152,left,1.1139185410065693,None,192.2652892499973,192.26533837500028,None,,,,,,,,,,,,sofia,0,2025-08-22_15h21.11.774,tilt_mocs,2023.2.3,120.87885016276718,2025-08-22 15h21.24.319574 -0400,
6.777777777777779,15.0,m1,poss,100,,,,,,,,,0,147,147,85,192.27488791700307,,,,,,,,,,,,,,,,,,,,,,,,,,,,,,192.26574437499949,192.27488791700307,192.76450166699942,192.76450166699942,192.8383195839997,192.8383195839997,192.8383195839997,193.29814762499882,right,1.0202152499987278,None,193.2985001249981,193.29853783400176,None,,,,,,,,,,,,sofia,0,2025-08-22_15h21.11.774,tilt_mocs,2023.2.3,120.87885016276718,2025-08-22 15h21.24.319574 -0400,
6.777777777777779,15.0,m1,poss,100,,,,,,,,,0,148,148,102,193.3075755000027,,,,,,,,,,,,,,,,,,,,,,,,,,,,,,193.2988763750036,193.3075755000027,193.7972553340005,193.7972553340005,193.87177933399653,193.87177933399653,193.87177933399653,194.7717277089978,right,1.4564453750062967,None,194.77208316700126,194.77212270900054,None,,,,,,,,,,,,sofia,0,2025-08-22_15h21.11.774,tilt_mocs,2023.2.3,120.87885016276718,2025-08-22 15h21.24.319574 -0400,
-1.4444444444444446,-15.0,PSE,negs,100,,,,,,,,,0,149,149,405,194.79705462499987,,,,,,,,,,,,,,,,,,,,,,,,,,,,,,194.7724779170021,194.79705462499987,195.27360091699666,195.27360091699666,195.34685508399707,195.34685508399707,195.34685508399707,195.78178004200163,left,0.98355299999821,None,195.78213991699886,195.78217804199812,None,,,,,,,,,,,,sofia,0,2025-08-22_15h21.11.774,tilt_mocs,2023.2.3,120.87885016276718,2025-08-22 15h21.24.319574 -0400,
8.777777777777779,15.0,p3,poss,100,,,,,,,,,0,150,150,249,195.791733500002,,,,,,,,,,,,,,,,,,,,,,,,,,,,,,195.78251841699966,195.791733500002,196.2795070420034,196.2795070420034,196.354900792001,196.354900792001,196.354900792001,196.754700958998,right,0.9576297500025248,None,196.75506020899775,196.75509866700304,None,,,,,,,,,,,,sofia,0,2025-08-22_15h21.11.774,tilt_mocs,2023.2.3,120.87885016276718,2025-08-22 15h21.24.319574 -0400,
-0.9444444444444446,-15.0,p1,negs,100,,,,,,,,,0,151,151,450,196.76442645899806,,,,,,,,,,,,,,,,,,,,,,,,,,,,,,196.7554395420011,196.76442645899806,197.2583999999988,197.2583999999988,197.33015016699937,197.3372243749982,197.3372243749982,197.73859987500327,left,0.9725346670020372,None,197.73902841700328,197.73907562500244,None,,,,,,,,,,,,sofia,0,2025-08-22_15h21.11.774,tilt_mocs,2023.2.3,120.87885016276718,2025-08-22 15h21.24.319574 -0400,
0.5,0.0,m2,noss,0,,,,,,,,,0,152,152,599,197.7488156249965,,,,,,,,,,,,,,,,,,,,,,,,,,,,,,197.73947916700126,197.7488156249965,198.24191904199688,198.24191904199688,198.31346208399918,198.3203944170018,198.3203944170018,199.0977774999992,left,1.338915291999001,None,199.09818479199748,199.09822249999706,None,,,,,,,,,,,,sofia,0,2025-08-22_15h21.11.774,tilt_mocs,2023.2.3,120.87885016276718,2025-08-22 15h21.24.319574 -0400,
0.5,0.0,m2,noss,0,,,,,,,,,0,153,153,584,199.10549075000017,,,,,,,,,,,,,,,,,,,,,,,,,,,,,,199.09855979200074,199.10549075000017,199.5910859170035,199.5910859170035,199.67216650000046,199.66421704200184,199.66421704200184,200.28160699999717,left,1.170005542000581,None,200.28204345900303,200.2820911250019,None,,,,,,,,,,,,sofia,0,2025-08-22_15h21.11.774,tilt_mocs,2023.2.3,120.87885016276718,2025-08-22 15h21.24.319574 -0400,
6.777777777777779,15.0,m1,poss,100,,,,,,,,,0,154,154,115,200.2916830000031,,,,,,,,,,,,,,,,,,,,,,,,,,,,,,200.2825071670013,200.2916830000031,200.7808098750029,200.7808098750029,200.85525349999807,200.85525349999807,200.85525349999807,201.1814150420032,right,0.8799581250059418,None,201.18184116700286,201.18188579200068,None,,,,,,,,,,,,sofia,0,2025-08-22_15h21.11.774,tilt_mocs,2023.2.3,120.87885016276718,2025-08-22 15h21.24.319574 -0400,
1.0,0.0,m1,noss,0,,,,,,,,,0,155,155,607,201.19159154200315,,,,,,,,,,,,,,,,,,,,,,,,,,,,,,201.18232512500254,201.19159154200315,201.68126258400298,201.68126258400298,201.75480133399833,201.75480133399833,201.75480133399833,202.264850749998,left,1.06963595799607,None,202.26521129199682,202.26525024999864,None,,,,,,,,,,,,sofia,0,2025-08-22_15h21.11.774,tilt_mocs,2023.2.3,120.87885016276718,2025-08-22 15h21.24.319574 -0400,
-0.9444444444444446,-15.0,p1,negs,100,,,,,,,,,0,156,156,452,202.27437125000142,,,,,,,,,,,,,,,,,,,,,,,,,,,,,,202.26559275000182,202.27437125000142,202.7637285000019,202.7637285000019,202.83752724999795,202.83752724999795,202.83752724999795,203.33817441699648,left,1.0581562080042204,None,203.33853899999667,203.33857841700228,None,,,,,,,,,,,,sofia,0,2025-08-22_15h21.11.774,tilt_mocs,2023.2.3,120.87885016276718,2025-08-22 15h21.24.319574 -0400,
7.777777777777779,15.0,p1,poss,100,,,,,,,,,0,157,157,163,203.3477031250004,,,,,,,,,,,,,,,,,,,,,,,,,,,,,,203.338925541997,203.3477031250004,203.84271662499668,203.84271662499668,203.91355037500034,203.92069395900035,203.92069395900035,204.41496466699755,right,1.0661280419953982,None,204.41531787499844,204.41535499999736,None,,,,,,,,,,,,sofia,0,2025-08-22_15h21.11.774,tilt_mocs,2023.2.3,120.87885016276718,2025-08-22 15h21.24.319574 -0400,
8.777777777777779,15.0,p3,poss,100,,,,,,,,,0,158,158,260,204.42428204199678,,,,,,,,,,,,,,,,,,,,,,,,,,,,,,204.41569408399664,204.42428204199678,204.9142077919969,204.9142077919969,204.98806104200048,204.98806104200048,204.98806104200048,205.34832737500255,right,0.9147349999984726,None,205.34876966699812,205.3488178339976,None,,,,,,,,,,,,sofia,0,2025-08-22_15h21.11.774,tilt_mocs,2023.2.3,120.87885016276718,2025-08-22 15h21.24.319574 -0400,
8.277777777777779,15.0,p2,poss,100,,,,,,,,,0,159,159,233,205.3579415839995,,,,,,,,,,,,,,,,,,,,,,,,,,,,,,205.34919141700084,205.3579415839995,205.84641020900017,205.84641020900017,205.92240666699945,205.92240666699945,205.92240666699945,206.2714959590012,right,0.911674041999504,None,206.27191604200198,206.27196254199953,None,,,,,,,,,,,,sofia,0,2025-08-22_15h21.11.774,tilt_mocs,2023.2.3,120.87885016276718,2025-08-22 15h21.24.319574 -0400,
1.5,0.0,PSE,noss,0,,,,,,,,,0,160,160,634,206.29720899999666,,,,,,,,,,,,,,,,,,,,,,,,,,,,,,206.2723907920008,206.29720899999666,206.7742381249991,206.7742381249991,206.8469989590012,206.8469989590012,206.8469989590012,207.5715899170027,left,1.2730346249954891,None,207.57194545899983,207.5719844589985,None,,,,,,,,,,,,sofia,0,2025-08-22_15h21.11.774,tilt_mocs,2023.2.3,120.87885016276718,2025-08-22 15h21.24.319574 -0400,
8.277777777777779,15.0,p2,poss,100,,,,,,,,,0,161,161,201,207.58100787500007,,,,,,,,,,,,,,,,,,,,,,,,,,,,,,207.5723204590031,207.58100787500007,208.0750243750008,208.0750243750008,208.14701049999712,208.1539971250022,208.1539971250022,208.6383115839999,right,1.0514306249970105,None,208.63866979200247,208.63870904200303,None,,,,,,,,,,,,sofia,0,2025-08-22_15h21.11.774,tilt_mocs,2023.2.3,120.87885016276718,2025-08-22 15h21.24.319574 -0400,
-0.0555555555555553,-15.0,p3,negs,100,,,,,,,,,0,162,162,553,208.64796337499865,,,,,,,,,,,,,,,,,,,,,,,,,,,,,,208.63906454200333,208.64796337499865,209.14157366700238,209.14157366700238,209.21363995900174,209.22062633399764,209.22062633399764,209.73810320899793,left,1.0852211250021355,None,209.73846362499899,209.73850329199922,None,,,,,,,,,,,,sofia,0,2025-08-22_15h21.11.774,tilt_mocs,2023.2.3,120.87885016276718,2025-08-22 15h21.24.319574 -0400,
5.777777777777779,15.0,m3,poss,100,,,,,,,,,0,163,163,16,209.74775200000295,,,,,,,,,,,,,,,,,,,,,,,,,,,,,,209.73888520900073,209.74775200000295,210.24211112500052,210.24211112500052,210.31361229199683,210.32014241699653,210.32014241699653,210.7481576249993,right,0.9930177920032293,None,210.74851583399868,210.74855420899985,None,,,,,,,,,,,,sofia,0,2025-08-22_15h21.11.774,tilt_mocs,2023.2.3,120.87885016276718,2025-08-22 15h21.24.319574 -0400,
7.277777777777779,15.0,PSE,poss,100,,,,,,,,,0,164,164,144,210.75762612499966,,,,,,,,,,,,,,,,,,,,,,,,,,,,,,210.74890433400287,210.75762612499966,211.24745791700116,211.24745791700116,211.32165983400046,211.32165983400046,211.32165983400046,211.89820979200158,right,1.134497332997853,None,211.8985765000034,211.89861458400264,None,,,,,,,,,,,,sofia,0,2025-08-22_15h21.11.774,tilt_mocs,2023.2.3,120.87885016276718,2025-08-22 15h21.24.319574 -0400,
6.277777777777779,15.0,m2,poss,100,,,,,,,,,0,165,165,66,211.90784658399934,,,,,,,,,,,,,,,,,,,,,,,,,,,,,,211.8989738750024,211.90784658399934,212.3920865839973,212.3920865839973,212.47145470899704,212.47145470899704,212.47145470899704,212.9157092500027,right,1.006461582997872,None,212.91614287500124,212.91618929200195,None,,,,,,,,,,,,sofia,0,2025-08-22_15h21.11.774,tilt_mocs,2023.2.3,120.87885016276718,2025-08-22 15h21.24.319574 -0400,
-0.9444444444444446,-15.0,p1,negs,100,,,,,,,,,0,166,166,454,212.92609054200148,,,,,,,,,,,,,,,,,,,,,,,,,,,,,,212.9166010839981,212.92609054200148,213.43065612499777,213.43065612499777,213.489657291997,213.50368462500046,213.50368462500046,214.11491308399854,left,1.180787582998164,None,214.11535412500234,214.11540070900082,None,,,,,,,,,,,,sofia,0,2025-08-22_15h21.11.774,tilt_mocs,2023.2.3,120.87885016276718,2025-08-22 15h21.24.319574 -0400,
7.277777777777779,15.0,PSE,poss,100,,,,,,,,,0,167,167,121,214.1247070419995,,,,,,,,,,,,,,,,,,,,,,,,,,,,,,214.11581495899736,214.1247070419995,214.6092471669981,214.6092471669981,214.68886829200346,214.68886829200346,214.68886829200346,216.1817734590004,right,2.0552230839966796,None,216.1821990419994,216.18224349999946,None,,,,,,,,,,,,sofia,0,2025-08-22_15h21.11.774,tilt_mocs,2023.2.3,120.87885016276718,2025-08-22 15h21.24.319574 -0400,
6.277777777777779,15.0,m2,poss,100,,,,,,,,,0,168,168,43,216.1918163340015,,,,,,,,,,,,,,,,,,,,,,,,,,,,,,216.18265300000348,216.1918163340015,216.67962029200135,216.67962029200135,216.75483833400358,216.75483833400358,216.75483833400358,217.3147554590032,right,1.116686583001865,None,217.3151067919971,217.31514370899822,None,,,,,,,,,,,,sofia,0,2025-08-22_15h21.11.774,tilt_mocs,2023.2.3,120.87885016276718,2025-08-22 15h21.24.319574 -0400,
-2.4444444444444446,-15.0,m2,negs,100,,,,,,,,,0,169,169,342,217.324258749999,,,,,,,,,,,,,,,,,,,,,,,,,,,,,,217.3154803340003,217.324258749999,217.80912404200353,217.80912404200353,217.88844654199784,217.88844654199784,217.88844654199784,218.41497629199876,left,1.0817542910008342,None,218.41540408400033,218.4154549590021,None,,,,,,,,,,,,sofia,0,2025-08-22_15h21.11.774,tilt_mocs,2023.2.3,120.87885016276718,2025-08-22 15h21.24.319574 -0400,
1.0,0.0,m1,noss,0,,,,,,,,,0,170,170,611,218.42599395899742,,,,,,,,,,,,,,,,,,,,,,,,,,,,,,218.41587158400216,218.42599395899742,218.91459391699755,218.91459391699755,218.98823224999796,218.98823224999796,218.98823224999796,220.03197545900184,left,1.6019656670032418,None,220.03240129200276,220.03244858400285,None,,,,,,,,,,,,sofia,0,2025-08-22_15h21.11.774,tilt_mocs,2023.2.3,120.87885016276718,2025-08-22 15h21.24.319574 -0400,
8.277777777777779,15.0,p2,poss,100,,,,,,,,,0,171,171,219,220.04199716699804,,,,,,,,,,,,,,,,,,,,,,,,,,,,,,220.03285458400205,220.04199716699804,220.53152599999885,220.53152599999885,220.60401224999805,220.60401224999805,220.60401224999805,220.99832429199887,right,0.9479897909986903,None,220.99875391700334,220.99879912500182,None,,,,,,,,,,,,sofia,0,2025-08-22_15h21.11.774,tilt_mocs,2023.2.3,120.87885016276718,2025-08-22 15h21.24.319574 -0400,
6.777777777777779,15.0,m1,poss,100,,,,,,,,,0,172,172,119,221.00840612500178,,,,,,,,,,,,,,,,,,,,,,,,,,,,,,220.99920583399944,221.00840612500178,221.49731412500114,221.49731412500114,221.57186541699775,221.57186541699775,221.57186541699775,222.17180166699836,right,1.1564668749997509,None,222.17216245899908,222.17219991699676,None,,,,,,,,,,,,sofia,0,2025-08-22_15h21.11.774,tilt_mocs,2023.2.3,120.87885016276718,2025-08-22 15h21.24.319574 -0400,
1.0,0.0,m1,noss,0,,,,,,,,,0,173,173,606,222.1814814590034,,,,,,,,,,,,,,,,,,,,,,,,,,,,,,222.17254216699803,222.1814814590034,222.67510920899804,222.67510920899804,222.74710604199936,222.7540197920025,222.7540197920025,223.32214633400145,left,1.1390471669947146,None,223.32256849999976,223.32261508399824,None,,,,,,,,,,,,sofia,0,2025-08-22_15h21.11.774,tilt_mocs,2023.2.3,120.87885016276718,2025-08-22 15h21.24.319574 -0400,
-2.9444444444444446,-15.0,m3,negs,100,,,,,,,,,0,174,174,292,223.34738700000162,,,,,,,,,,,,,,,,,,,,,,,,,,,,,,223.32301629200083,223.34738700000162,223.82542304199887,223.82542304199887,223.89715995900042,223.90396666699962,223.90396666699962,224.60538679199817,left,1.254225916993164,None,224.60581983400334,224.60586691700155,None,,,,,,,,,,,,sofia,0,2025-08-22_15h21.11.774,tilt_mocs,2023.2.3,120.87885016276718,2025-08-22 15h21.24.319574 -0400,
-0.4444444444444446,-15.0,p2,negs,100,,,,,,,,,0,175,175,517,224.6306455419981,,,,,,,,,,,,,,,,,,,,,,,,,,,,,,224.60628570900008,224.6306455419981,225.10832287499943,225.10832287499943,225.1804629170001,225.18729995899776,225.18729995899776,226.10616258400114,right,1.46728649999568,None,226.10659587499686,226.1066442090014,None,,,,,,,,,,,,sofia,0,2025-08-22_15h21.11.774,tilt_mocs,2023.2.3,120.87885016276718,2025-08-22 15h21.24.319574 -0400,
-0.9444444444444446,-15.0,p1,negs,100,,,,,,,,,0,176,176,463,226.11617049999768,,,,,,,,,,,,,,,,,,,,,,,,,,,,,,226.10706029200082,226.11617049999768,226.60838687499927,226.60838687499927,226.68052116699982,226.68052116699982,226.68052116699982,227.40504579200206,left,1.287028292004834,None,227.40539129199897,227.40543062500365,None,,,,,,,,,,,,sofia,0,2025-08-22_15h21.11.774,tilt_mocs,2023.2.3,120.87885016276718,2025-08-22 15h21.24.319574 -0400,
-2.4444444444444446,-15.0,m2,negs,100,,,,,,,,,0,177,177,350,227.41483549999975,,,,,,,,,,,,,,,,,,,,,,,,,,,,,,227.40577604199643,227.41483549999975,227.8982305419995,227.8982305419995,227.98110366699984,227.96979799999826,227.96979799999826,228.40498658399883,left,0.9876961659974768,None,228.4053415840026,228.40538254199782,None,,,,,,,,,,,,sofia,0,2025-08-22_15h21.11.774,tilt_mocs,2023.2.3,120.87885016276718,2025-08-22 15h21.24.319574 -0400,
7.277777777777779,15.0,PSE,poss,100,,,,,,,,,0,178,178,159,228.41465858399897,,,,,,,,,,,,,,,,,,,,,,,,,,,,,,228.40573987500102,228.41465858399897,228.89808841700142,228.89808841700142,228.98110412499955,228.9695895420009,228.9695895420009,229.4491914590035,right,1.033159667000291,None,229.4496193340019,229.44966541699978,None,,,,,,,,,,,,sofia,0,2025-08-22_15h21.11.774,tilt_mocs,2023.2.3,120.87885016276718,2025-08-22 15h21.24.319574 -0400,
3.0,0.0,p3,noss,0,,,,,,,,,0,179,179,696,229.45957129199815,,,,,,,,,,,,,,,,,,,,,,,,,,,,,,229.45006750000175,229.45957129199815,229.94674266700167,229.94674266700167,230.02228808400105,230.02228808400105,230.02228808400105,230.5815799999982,left,1.1173489169959794,None,230.5820001250031,230.5820449169987,None,,,,,,,,,,,,sofia,0,2025-08-22_15h21.11.774,tilt_mocs,2023.2.3,120.87885016276718,2025-08-22 15h21.24.319574 -0400,
7.277777777777779,15.0,PSE,poss,100,,,,,,,,,0,180,180,127,230.59171804200014,,,,,,,,,,,,,,,,,,,,,,,,,,,,,,230.58245708399772,230.59171804200014,231.08015516700107,231.08015516700107,231.1549883339976,231.1549883339976,231.1549883339976,231.73209974999918,right,1.1389275830006227,None,231.73252420900099,231.7325708339995,None,,,,,,,,,,,,sofia,0,2025-08-22_15h21.11.774,tilt_mocs,2023.2.3,120.87885016276718,2025-08-22 15h21.24.319574 -0400,
6.277777777777779,15.0,m2,poss,100,,,,,,,,,0,181,181,46,231.74177962500107,,,,,,,,,,,,,,,,,,,,,,,,,,,,,,231.73295379200135,231.74177962500107,232.2309252920022,232.2309252920022,232.30551008399925,232.30551008399925,232.30551008399925,233.7318680840035,left,1.9840290829961305,None,233.73222974999953,233.732266084,None,,,,,,,,,,,,sofia,0,2025-08-22_15h21.11.774,tilt_mocs,2023.2.3,120.87885016276718,2025-08-22 15h21.24.319574 -0400,
-0.0555555555555553,-15.0,p3,negs,100,,,,,,,,,0,182,182,529,233.74134529200091,,,,,,,,,,,,,,,,,,,,,,,,,,,,,,233.7326179590018,233.74134529200091,234.23023087500042,234.23023087500042,234.30573420900328,234.30573420900328,234.30573420900328,235.72232837499905,right,1.9767194160012878,None,235.7226999170016,235.7227389999971,None,,,,,,,,,,,,sofia,0,2025-08-22_15h21.11.774,tilt_mocs,2023.2.3,120.87885016276718,2025-08-22 15h21.24.319574 -0400,
6.777777777777779,15.0,m1,poss,100,,,,,,,,,0,183,183,112,235.7475453750012,,,,,,,,,,,,,,,,,,,,,,,,,,,,,,235.72308016700117,235.7475453750012,236.22500466700149,236.22500466700149,236.29731100000208,236.29731100000208,236.29731100000208,236.78893441700347,right,1.0377235839987407,None,236.78935374999855,236.78939454200008,None,,,,,,,,,,,,sofia,0,2025-08-22_15h21.11.774,tilt_mocs,2023.2.3,120.87885016276718,2025-08-22 15h21.24.319574 -0400,
8.277777777777779,15.0,p2,poss,100,,,,,,,,,0,184,184,236,236.81411929200112,,,,,,,,,,,,,,,,,,,,,,,,,,,,,,236.7897270839967,236.81411929200112,237.29197674999887,237.29197674999887,237.3640343340012,237.3640343340012,237.3640343340012,237.79841874999693,right,0.9756086250054068,None,237.7988470420023,237.79889258400362,None,,,,,,,,,,,,sofia,0,2025-08-22_15h21.11.774,tilt_mocs,2023.2.3,120.87885016276718,2025-08-22 15h21.24.319574 -0400,
7.277777777777779,15.0,PSE,poss,100,,,,,,,,,0,185,185,132,237.80889041699993,,,,,,,,,,,,,,,,,,,,,,,,,,,,,,237.79930816699925,237.80889041699993,238.29263179199916,238.29263179199916,238.37249899999733,238.37249899999733,238.37249899999733,239.23855791700043,right,1.423567458994512,None,239.2389138340004,239.2389517499978,None,,,,,,,,,,,,sofia,0,2025-08-22_15h21.11.774,tilt_mocs,2023.2.3,120.87885016276718,2025-08-22 15h21.24.319574 -0400,
-2.9444444444444446,-15.0,m3,negs,100,,,,,,,,,0,186,186,297,239.24825387499732,,,,,,,,,,,,,,,,,,,,,,,,,,,,,,239.2392881670021,239.24825387499732,239.74136395900132,239.74136395900132,239.8139797499971,239.8139797499971,239.8139797499971,240.26575408400095,left,1.0163257500025793,None,240.2661679169978,240.26621187500132,None,,,,,,,,,,,,sofia,0,2025-08-22_15h21.11.774,tilt_mocs,2023.2.3,120.87885016276718,2025-08-22 15h21.24.319574 -0400,
8.277777777777779,15.0,p2,poss,100,,,,,,,,,0,187,187,213,240.27558495900303,,,,,,,,,,,,,,,,,,,,,,,,,,,,,,240.26661066700035,240.27558495900303,240.76392612500058,240.76392612500058,240.83940874999826,240.83940874999826,240.83940874999826,241.5224962919965,right,1.2403005410014885,None,241.5229248339965,241.5229742090014,None,,,,,,,,,,,,sofia,0,2025-08-22_15h21.11.774,tilt_mocs,2023.2.3,120.87885016276718,2025-08-22 15h21.24.319574 -0400,
-0.4444444444444446,-15.0,p2,negs,100,,,,,,,,,0,188,188,498,241.54741749999812,,,,,,,,,,,,,,,,,,,,,,,,,,,,,,241.52337629200338,241.54741749999812,242.02555358399695,242.02555358399695,242.09728183400148,242.09728183400148,242.09728183400148,242.51579700000002,left,0.9664266660038265,None,242.5162104589981,242.51625416699972,None,,,,,,,,,,,,sofia,0,2025-08-22_15h21.11.774,tilt_mocs,2023.2.3,120.87885016276718,2025-08-22 15h21.24.319574 -0400,
-0.9444444444444446,-15.0,p1,negs,100,,,,,,,,,0,189,189,446,242.52554862500256,,,,,,,,,,,,,,,,,,,,,,,,,,,,,,242.51665704199695,242.52554862500256,243.01414233400283,243.01414233400283,243.08894924999913,243.08894924999913,243.08894924999913,244.1322447499988,left,1.5964632920004078,None,244.13260237500072,244.13264020899805,None,,,,,,,,,,,,sofia,0,2025-08-22_15h21.11.774,tilt_mocs,2023.2.3,120.87885016276718,2025-08-22 15h21.24.319574 -0400,
6.277777777777779,15.0,m2,poss,100,,,,,,,,,0,190,190,73,244.14204937499744,,,,,,,,,,,,,,,,,,,,,,,,,,,,,,244.13297774999955,244.14204937499744,244.63113829200302,244.63113829200302,244.70544325000083,244.70544325000083,244.70544325000083,245.2822457919974,right,1.1364549170029932,None,245.28267483400123,245.28272083400225,None,,,,,,,,,,,,sofia,0,2025-08-22_15h21.11.774,tilt_mocs,2023.2.3,120.87885016276718,2025-08-22 15h21.24.319574 -0400,
-0.0555555555555553,-15.0,p3,negs,100,,,,,,,,,0,191,191,530,245.29240833399672,,,,,,,,,,,,,,,,,,,,,,,,,,,,,,245.2831387920014,245.29240833399672,245.7815006669989,245.7815006669989,245.85546020900074,245.85546020900074,245.85546020900074,246.24820216700027,left,0.9461237909999909,None,246.24855762499647,246.24859562500205,None,,,,,,,,,,,,sofia,0,2025-08-22_15h21.11.774,tilt_mocs,2023.2.3,120.87885016276718,2025-08-22 15h21.24.319574 -0400,
-2.4444444444444446,-15.0,m2,negs,100,,,,,,,,,0,192,192,325,246.25758162500279,,,,,,,,,,,,,,,,,,,,,,,,,,,,,,246.24893812499795,246.25758162500279,246.7410729999974,246.7410729999974,246.82286600000225,246.8147947089965,246.8147947089965,247.38870362500165,left,1.1277280840004096,None,247.38912704199902,247.38917170900095,None,,,,,,,,,,,,sofia,0,2025-08-22_15h21.11.774,tilt_mocs,2023.2.3,120.87885016276718,2025-08-22 15h21.24.319574 -0400,
-2.9444444444444446,-15.0,m3,negs,100,,,,,,,,,0,193,193,280,247.39821991699864,,,,,,,,,,,,,,,,,,,,,,,,,,,,,,247.38952150000114,247.39821991699864,247.89108687500266,247.89108687500266,247.96413700000267,247.96413700000267,247.96413700000267,248.48200479200023,left,1.0768147920025513,None,248.48242637499789,248.48247291699954,None,,,,,,,,,,,,sofia,0,2025-08-22_15h21.11.774,tilt_mocs,2023.2.3,120.87885016276718,2025-08-22 15h21.24.319574 -0400,
1.0,0.0,m1,noss,0,,,,,,,,,0,194,194,602,248.49211137500242,,,,,,,,,,,,,,,,,,,,,,,,,,,,,,248.48288741699798,248.49211137500242,248.9810030419976,248.9810030419976,249.05592283399892,249.05592283399892,249.05592283399892,249.6894601669992,left,1.1903077500028303,None,249.68988395899942,249.68993120900268,None,,,,,,,,,,,,sofia,0,2025-08-22_15h21.11.774,tilt_mocs,2023.2.3,120.87885016276718,2025-08-22 15h21.24.319574 -0400,
5.777777777777779,15.0,m3,poss,100,,,,,,,,,0,195,195,24,249.6993217499985,,,,,,,,,,,,,,,,,,,,,,,,,,,,,,249.69033095899795,249.6993217499985,250.1922469170022,250.1922469170022,250.2632997920009,250.2700439170003,250.2700439170003,250.65549954200105,right,0.9492429999954766,None,250.6558481250031,250.65588666700205,None,,,,,,,,,,,,sofia,0,2025-08-22_15h21.11.774,tilt_mocs,2023.2.3,120.87885016276718,2025-08-22 15h21.24.319574 -0400,
-1.9444444444444449,-15.0,m1,negs,100,,,,,,,,,0,196,196,387,250.66509799999767,,,,,,,,,,,,,,,,,,,,,,,,,,,,,,250.6562322500031,250.66509799999767,251.15810658400005,251.15810658400005,251.23079041700112,251.23079041700112,251.23079041700112,252.15574433399888,left,1.4884864589985227,None,252.15616637500352,252.1562138750014,None,,,,,,,,,,,,sofia,0,2025-08-22_15h21.11.774,tilt_mocs,2023.2.3,120.87885016276718,2025-08-22 15h21.24.319574 -0400,
0.0,0.0,m3,noss,0,,,,,,,,,0,197,197,570,252.18086708399642,,,,,,,,,,,,,,,,,,,,,,,,,,,,,,252.1566064590006,252.18086708399642,252.65815524999925,252.65815524999925,252.73079229200084,252.73079229200084,252.73079229200084,253.21575554199808,left,1.024337041999388,None,253.21618324999872,253.2162298339972,None,,,,,,,,,,,,sofia,0,2025-08-22_15h21.11.774,tilt_mocs,2023.2.3,120.87885016276718,2025-08-22 15h21.24.319574 -0400,
-1.4444444444444446,-15.0,PSE,negs,100,,,,,,,,,0,198,198,435,253.22588395899947,,,,,,,,,,,,,,,,,,,,,,,,,,,,,,253.21664141699875,253.22588395899947,253.71433637500013,253.71433637500013,253.78787754200312,253.78787754200312,253.78787754200312,254.98943958400196,right,1.7571771669972804,None,254.98988304199884,254.9899294170027,None,,,,,,,,,,,,sofia,0,2025-08-22_15h21.11.774,tilt_mocs,2023.2.3,120.87885016276718,2025-08-22 15h21.24.319574 -0400,
0.0,0.0,m3,noss,0,,,,,,,,,0,199,199,562,254.99925004199758,,,,,,,,,,,,,,,,,,,,,,,,,,,,,,254.99033054200117,254.99925004199758,255.4921624999988,255.4921624999988,255.5641913340005,255.5641913340005,255.5641913340005,256.8560547090019,left,1.8534335840013227,None,256.8564813749981,256.85652700000355,None,,,,,,,,,,,,sofia,0,2025-08-22_15h21.11.774,tilt_mocs,2023.2.3,120.87885016276718,2025-08-22 15h21.24.319574 -0400,
2.0,0.0,p1,noss,0,,,,,,,,,0,200,200,657,256.86628354200366,,,,,,,,,,,,,,,,,,,,,,,,,,,,,,256.8569510419984,256.86628354200366,257.3579884589999,257.3579884589999,257.43089037499885,257.43089037499885,257.43089037499885,258.1152232090026,right,1.2456344589954824,None,258.11564187500335,258.11568641699705,None,,,,,,,,,,,,sofia,0,2025-08-22_15h21.11.774,tilt_mocs,2023.2.3,120.87885016276718,2025-08-22 15h21.24.319574 -0400,
7.277777777777779,15.0,PSE,poss,100,,,,,,,,,0,201,201,141,258.124964249997,,,,,,,,,,,,,,,,,,,,,,,,,,,,,,258.1161088750014,258.124964249997,258.60892954200244,258.60892954200244,258.6880254170028,258.6880254170028,258.6880254170028,259.3658730840034,right,1.2313284590054536,None,259.3663004170012,259.36634654200316,None,,,,,,,,,,,,sofia,0,2025-08-22_15h21.11.774,tilt_mocs,2023.2.3,120.87885016276718,2025-08-22 15h21.24.319574 -0400,
8.777777777777779,15.0,p3,poss,100,,,,,,,,,0,202,202,266,259.37565904200164,,,,,,,,,,,,,,,,,,,,,,,,,,,,,,259.36676620900107,259.37565904200164,259.88118770899746,259.88118770899746,259.93977258400264,259.9538462920027,259.9538462920027,260.4392409170032,right,1.060488292001537,None,260.4396772089967,260.4397255419972,None,,,,,,,,,,,,sofia,0,2025-08-22_15h21.11.774,tilt_mocs,2023.2.3,120.87885016276718,2025-08-22 15h21.24.319574 -0400,
5.777777777777779,15.0,m3,poss,100,,,,,,,,,0,203,203,26,260.4643540420002,,,,,,,,,,,,,,,,,,,,,,,,,,,,,,260.4401346250015,260.4643540420002,260.94310995900014,260.94310995900014,261.01426583399734,261.0207970420015,261.0207970420015,263.09933470899705,left,2.633609582997451,None,263.0997602089992,263.0998063750012,None,,,,,,,,,,,,sofia,0,2025-08-22_15h21.11.774,tilt_mocs,2023.2.3,120.87885016276718,2025-08-22 15h21.24.319574 -0400,
2.0,0.0,p1,noss,0,,,,,,,,,0,204,204,652,263.1089187920006,,,,,,,,,,,,,,,,,,,,,,,,,,,,,,263.10021133400005,263.1089187920006,263.5969825420034,263.5969825420034,263.6718838750021,263.6718838750021,263.6718838750021,264.72264204199746,right,1.6084032090002438,None,264.72307487500075,264.7231236250009,None,,,,,,,,,,,,sofia,0,2025-08-22_15h21.11.774,tilt_mocs,2023.2.3,120.87885016276718,2025-08-22 15h21.24.319574 -0400,
-0.0555555555555553,-15.0,p3,negs,100,,,,,,,,,0,205,205,546,264.7329339170028,,,,,,,,,,,,,,,,,,,,,,,,,,,,,,264.7235522089977,264.7329339170028,265.2254347499984,265.2254347499984,265.29759524999827,265.3046590840022,265.3046590840022,265.7990855840035,left,1.064741124995635,None,265.79950904200086,265.79955520899966,None,,,,,,,,,,,,sofia,0,2025-08-22_15h21.11.774,tilt_mocs,2023.2.3,120.87885016276718,2025-08-22 15h21.24.319574 -0400,
8.777777777777779,15.0,p3,poss,100,,,,,,,,,0,206,206,248,265.80891504199826,,,,,,,,,,,,,,,,,,,,,,,,,,,,,,265.79996474999643,265.80891504199826,266.29852779200155,266.29852779200155,266.3728273750021,266.3728273750021,266.3728273750021,266.8078633749974,right,0.9895003749988973,None,266.80822837499727,266.80826612500096,None,,,,,,,,,,,,sofia,0,2025-08-22_15h21.11.774,tilt_mocs,2023.2.3,120.87885016276718,2025-08-22 15h21.24.319574 -0400,
5.777777777777779,15.0,m3,poss,100,,,,,,,,,0,207,207,29,266.8153361250006,,,,,,,,,,,,,,,,,,,,,,,,,,,,,,266.8085992089982,266.8153361250006,267.3083806249997,267.3083806249997,267.3810372500011,267.3810372500011,267.3810372500011,267.905929499997,right,1.089421583004878,None,267.90627262499765,267.9063088339972,None,,,,,,,,,,,,sofia,0,2025-08-22_15h21.11.774,tilt_mocs,2023.2.3,120.87885016276718,2025-08-22 15h21.24.319574 -0400,
1.5,0.0,PSE,noss,0,,,,,,,,,0,208,208,637,267.93113741699926,,,,,,,,,,,,,,,,,,,,,,,,,,,,,,267.90664270900015,267.93113741699926,268.4084976669983,268.4084976669983,268.48112187499646,268.48112187499646,268.48112187499646,269.2897885420025,left,1.3554632910017972,None,269.29021266700147,269.2902594170009,None,,,,,,,,,,,,sofia,0,2025-08-22_15h21.11.774,tilt_mocs,2023.2.3,120.87885016276718,2025-08-22 15h21.24.319574 -0400,
6.777777777777779,15.0,m1,poss,100,,,,,,,,,0,209,209,83,269.299470209,,,,,,,,,,,,,,,,,,,,,,,,,,,,,,269.2906304999997,269.299470209,269.79214508400037,269.79214508400037,269.86434449999797,269.8713051250015,269.8713051250015,270.42256633399666,right,1.1192882920004195,None,270.4229926249973,270.42304154200247,None,,,,,,,,,,,,sofia,0,2025-08-22_15h21.11.774,tilt_mocs,2023.2.3,120.87885016276718,2025-08-22 15h21.24.319574 -0400,
1.5,0.0,PSE,noss,0,,,,,,,,,0,210,210,635,270.4339033750002,,,,,,,,,,,,,,,,,,,,,,,,,,,,,,270.4234520000027,270.4339033750002,270.92665870900237,270.92665870900237,270.99769308399846,271.00473541700194,271.00473541700194,271.998967583997,left,1.557801583003311,None,271.9993965419999,271.9994434170003,None,,,,,,,,,,,,sofia,0,2025-08-22_15h21.11.774,tilt_mocs,2023.2.3,120.87885016276718,2025-08-22 15h21.24.319574 -0400,
5.777777777777779,15.0,m3,poss,100,,,,,,,,,0,211,211,5,272.0094135420004,,,,,,,,,,,,,,,,,,,,,,,,,,,,,,271.9998544170012,272.0094135420004,272.49783279200346,272.49783279200346,272.5724238749972,272.5724238749972,272.5724238749972,273.7489594590006,right,1.730277875001775,None,273.7493749999994,273.74942074999854,None,,,,,,,,,,,,sofia,0,2025-08-22_15h21.11.774,tilt_mocs,2023.2.3,120.87885016276718,2025-08-22 15h21.24.319574 -0400,
0.5,0.0,m2,noss,0,,,,,,,,,0,212,212,587,273.75896945899876,,,,,,,,,,,,,,,,,,,,,,,,,,,,,,273.74984341699746,273.75896945899876,274.24780954200105,274.24780954200105,274.32284524999704,274.32284524999704,274.32284524999704,274.81569858400326,left,1.0537929170022835,None,274.816115499998,274.8161608750015,None,,,,,,,,,,,,sofia,0,2025-08-22_15h21.11.774,tilt_mocs,2023.2.3,120.87885016276718,2025-08-22 15h21.24.319574 -0400,
5.777777777777779,15.0,m3,poss,100,,,,,,,,,0,213,213,19,274.82600341700163,,,,,,,,,,,,,,,,,,,,,,,,,,,,,,274.8165654589975,274.82600341700163,275.3156684589994,275.3156684589994,275.38826462499856,275.38826462499856,275.38826462499856,276.3328737920019,right,1.5054641669994453,None,276.33330033400125,276.33334625000134,None,,,,,,,,,,,,sofia,0,2025-08-22_15h21.11.774,tilt_mocs,2023.2.3,120.87885016276718,2025-08-22 15h21.24.319574 -0400,
-1.9444444444444449,-15.0,m1,negs,100,,,,,,,,,0,214,214,379,276.34274816700054,,,,,,,,,,,,,,,,,,,,,,,,,,,,,,276.3337552919984,276.34274816700054,276.83129962500243,276.83129962500243,276.9059893750018,276.9059893750018,276.9059893750018,277.39916133399674,left,1.0550768329994753,None,277.3995820420023,277.39962808400014,None,,,,,,,,,,,,sofia,0,2025-08-22_15h21.11.774,tilt_mocs,2023.2.3,120.87885016276718,2025-08-22 15h21.24.319574 -0400,
-2.4444444444444446,-15.0,m2,negs,100,,,,,,,,,0,215,215,345,277.40895679200185,,,,,,,,,,,,,,,,,,,,,,,,,,,,,,277.4000442089964,277.40895679200185,277.8981936670025,277.8981936670025,277.9724712919997,277.9724712919997,277.9724712919997,278.68910795899865,left,1.276435792002303,None,278.6894642499974,278.6895015839982,None,,,,,,,,,,,,sofia,0,2025-08-22_15h21.11.774,tilt_mocs,2023.2.3,120.87885016276718,2025-08-22 15h21.24.319574 -0400,
1.0,0.0,m1,noss,0,,,,,,,,,0,216,216,616,278.6986318749987,,,,,,,,,,,,,,,,,,,,,,,,,,,,,,278.68983650000155,278.6986318749987,279.191349834,279.191349834,279.2646604170004,279.2646604170004,279.2646604170004,280.8661906249981,left,2.1567062079993775,None,280.86661941700004,280.8666666670033,None,,,,,,,,,,,,sofia,0,2025-08-22_15h21.11.774,tilt_mocs,2023.2.3,120.87885016276718,2025-08-22 15h21.24.319574 -0400,
0.5,0.0,m2,noss,0,,,,,,,,,0,217,217,589,280.8756491669992,,,,,,,,,,,,,,,,,,,,,,,,,,,,,,280.86707212500187,280.8756491669992,281.36484829200344,281.36484829200344,281.43946637499903,281.43946637499903,281.43946637499903,281.849168834,right,0.9648193750035716,None,281.849536624999,281.84957425000175,None,,,,,,,,,,,,sofia,0,2025-08-22_15h21.11.774,tilt_mocs,2023.2.3,120.87885016276718,2025-08-22 15h21.24.319574 -0400,
-1.9444444444444449,-15.0,m1,negs,100,,,,,,,,,0,218,218,399,281.8587347089997,,,,,,,,,,,,,,,,,,,,,,,,,,,,,,281.8499162090011,281.8587347089997,282.34808716700354,282.34808716700354,282.42278808399715,282.42278808399715,282.42278808399715,282.9325240839971,left,1.069838333001826,None,282.9328764169986,282.93291495899757,None,,,,,,,,,,,,sofia,0,2025-08-22_15h21.11.774,tilt_mocs,2023.2.3,120.87885016276718,2025-08-22 15h21.24.319574 -0400,
7.277777777777779,15.0,PSE,poss,100,,,,,,,,,0,219,219,135,282.94203120900056,,,,,,,,,,,,,,,,,,,,,,,,,,,,,,282.9332521250035,282.94203120900056,283.43117212499783,283.43117212499783,283.505465000002,283.505465000002,283.505465000002,283.8993382089975,right,0.949415458002477,None,283.8997769999987,283.89982570899883,None,,,,,,,,,,,,sofia,0,2025-08-22_15h21.11.774,tilt_mocs,2023.2.3,120.87885016276718,2025-08-22 15h21.24.319574 -0400,
8.277777777777779,15.0,p2,poss,100,,,,,,,,,0,220,220,211,283.90957912500016,,,,,,,,,,,,,,,,,,,,,,,,,,,,,,283.9002435000002,283.90957912500016,284.3980051670005,284.3980051670005,284.4730722919994,284.4730722919994,284.4730722919994,285.239267500001,right,1.326346249996277,None,285.23962037500314,285.23965766699985,None,,,,,,,,,,,,sofia,0,2025-08-22_15h21.11.774,tilt_mocs,2023.2.3,120.87885016276718,2025-08-22 15h21.24.319574 -0400,
6.277777777777779,15.0,m2,poss,100,,,,,,,,,0,221,221,50,285.2647816669996,,,,,,,,,,,,,,,,,,,,,,,,,,,,,,285.23999591699976,285.2647816669996,285.7425207089982,285.7425207089982,285.8145563340004,285.8145563340004,285.8145563340004,286.6491800840013,right,1.375797209002485,None,286.64960720900126,286.64965087499877,None,,,,,,,,,,,,sofia,0,2025-08-22_15h21.11.774,tilt_mocs,2023.2.3,120.87885016276718,2025-08-22 15h21.24.319574 -0400,
0.5,0.0,m2,noss,0,,,,,,,,,0,222,222,581,286.65909829200245,,,,,,,,,,,,,,,,,,,,,,,,,,,,,,286.6500606249974,286.65909829200245,287.14706650000153,287.14706650000153,287.22319516699645,287.22319516699645,287.22319516699645,287.6722227499995,left,1.0075375000014901,None,287.67257358400093,287.6726108340008,None,,,,,,,,,,,,sofia,0,2025-08-22_15h21.11.774,tilt_mocs,2023.2.3,120.87885016276718,2025-08-22 15h21.24.319574 -0400,
8.777777777777779,15.0,p3,poss,100,,,,,,,,,0,223,223,269,287.68138162499963,,,,,,,,,,,,,,,,,,,,,,,,,,,,,,287.6729455840032,287.68138162499963,288.17497733399796,288.17497733399796,288.2479355000032,288.2479355000032,288.2479355000032,291.6063301250033,right,3.9222042090041214,None,291.6066934999981,291.60673458399833,None,,,,,,,,,,,,sofia,0,2025-08-22_15h21.11.774,tilt_mocs,2023.2.3,120.87885016276718,2025-08-22 15h21.24.319574 -0400,
