center,surround,correct,thisN,thisTrialN,thisRepN,key_resp_3.keys,key_resp_3.corr,key_resp_3.rt,key_resp_3.duration,opacity,key_resp_4.keys,key_resp_4.corr,key_resp_4.rt,key_resp_4.duration,practice_no_time.thisRepN,practice_no_time.thisTrialN,practice_no_time.thisN,practice_no_time.thisIndex,practice_timed.thisRepN,practice_timed.thisTrialN,practice_timed.thisN,practice_timed.thisIndex,blocks.thisRepN,blocks.thisTrialN,blocks.thisN,blocks.thisIndex,thisRow.t,notes,instr.started,text_5.started,key_resp_2.started,instr.stopped,key_resp_2.keys,key_resp_2.rt,key_resp_2.duration,instr2.started,text_6.started,key_resp_6.started,instr2.stopped,key_resp_6.keys,key_resp_6.rt,key_resp_6.duration,practice_trial.started,key_resp_3.started,surround_practice.started,center_practice.started,practice_trial.stopped,practice_no_time.key_resp_3.keys,practice_no_time.key_resp_3.corr,practice_no_time.key_resp_3.rt,practice_no_time.key_resp_3.duration,practice_feedback.started,text_7.started,practice_feedback.stopped,text_7.stopped,instr3.started,text_8.started,key_resp_5.started,instr3.stopped,key_resp_5.keys,key_resp_5.rt,key_resp_5.duration,practice_trial_timed.started,key_resp_4.started,surround_practice_2.started,center_practice_2.started,surround_practice_2.stopped,center_practice_2.stopped,text_12.started,practice_trial_timed.stopped,practice_timed.key_resp_4.keys,practice_timed.key_resp_4.corr,practice_timed.key_resp_4.rt,practice_timed.key_resp_4.duration,start_instr.started,text_13.started,key_resp_8.started,start_instr.stopped,key_resp_8.keys,key_resp_8.rt,key_resp_8.duration,trials.label,trials.nReps,trials.startVal,trials.maxVal,trials.minVal,trials.stepSizes,trials.stepType,trials.nUp,trials.nDown,trials.nReversals,trials.thisIndex,trials.thisRepN,trials.thisN,trials.direction,trials.stepSize,trials.intensity,center_angle,surround_angle,trial.started,resp.started,surround_grating.started,center_grating.started,surround_grating.stopped,center_grating.stopped,text_3.started,trial.stopped,trials.response,break_2.started,text_14.started,key_resp_9.started,break_2.stopped,blocks.key_resp_9.keys,blocks.key_resp_9.rt,blocks.key_resp_9.duration,end.started,text_4.started,key_resp.started,end.stopped,key_resp.keys,key_resp.rt,key_resp.duration,sub,ses,date,expName,psychopyVersion,frameRate,expStart,
,,,,,,,,,,,,,,,,,,,,,,,,,,,,,0.010586625023279339,0.0196323330164887,0.0196323330164887,49.12968020798871,space,49.05042225000216,None,,,,,,,,,,,,,,,,,,,,,,,,,,,,,,,,,,,,,,,,,,,,,,,,,,,,,,,,,,,,,,,,,,,,,,,,,,,,,,,,,,,,,,,,nateheller,0,2025-09-11_15h05.09.545,tilt_staircase,2024.2.4,None,2025-09-11 15h05.27.046967 -0400,
,,,,,,,,,,,,,,,,,,,,,,,,,,,,,,,,,,,,49.12979891698342,49.15682974999072,49.15682974999072,55.95350379199954,space,6.792977500008419,None,,,,,,,,,,,,,,,,,,,,,,,,,,,,,,,,,,,,,,,,,,,,,,,,,,,,,,,,,,,,,,,,,,,,,,,,,,,,,,,,,nateheller,0,2025-09-11_15h05.09.545,tilt_staircase,2024.2.4,None,2025-09-11 15h05.27.046967 -0400,
30,0,right,0,0,0,right,1,1.3742941670352593,None,,,,,,0,0,0,0,,,,,,,,,55.996933832997456,,,,,,,,,,,,,,,,55.98868470801972,55.996933832997456,56.459827332990244,56.459827332990244,57.373941708006896,right,1,1.3742941670352593,None,57.37980429199524,57.57439416699344,58.8815241670236,,,,,,,,,,,,,,,,,,,,,,,,,,,,,,,,,,,,,,,,,,,,,,,,,,,,,,,,,,,,,,,,,,,,,nateheller,0,2025-09-11_15h05.09.545,tilt_staircase,2024.2.4,None,2025-09-11 15h05.27.046967 -0400,
-30,0,left,1,1,0,left,1,1.044615334016271,None,,,,,,0,1,1,1,,,,,,,,,58.8883606250165,,,,,,,,,,,,,,,,58.882756958017126,58.8883606250165,59.374307541991584,59.374307541991584,59.94028541701846,left,1,1.044615334016271,None,59.94041683297837,59.950614667031914,61.43737879197579,61.44808574998751,,,,,,,,,,,,,,,,,,,,,,,,,,,,,,,,,,,,,,,,,,,,,,,,,,,,,,,,,,,,,,,,,,,,nateheller,0,2025-09-11_15h05.09.545,tilt_staircase,2024.2.4,None,2025-09-11 15h05.27.046967 -0400,
30,60,right,2,2,0,right,1,1.0911710420041345,None,,,,,,0,2,2,2,,,,,,,,,61.44808574998751,,,,,,,,,,,,,,,,61.43830037501175,61.44808574998751,61.939976792025845,61.939976792025845,62.5497098750202,right,1,1.0911710420041345,None,62.54984954203246,62.55746070801979,64.04845524998382,64.0545890420326,,,,,,,,,,,,,,,,,,,,,,,,,,,,,,,,,,,,,,,,,,,,,,,,,,,,,,,,,,,,,,,,,,,,nateheller,0,2025-09-11_15h05.09.545,tilt_staircase,2024.2.4,None,2025-09-11 15h05.27.046967 -0400,
-30,-60,left,3,3,0,left,1,0.9776335830101743,None,,,,,,0,3,3,3,,,,,,,,,64.0545890420326,,,,,,,,,,,,,,,,64.04955545801204,64.0545890420326,64.54698833299335,64.54698833299335,65.04312491702149,left,1,0.9776335830101743,None,65.04321837500902,65.06415508297505,66.54779887502082,,,,,,,,,,,,,,,,,,,,,,,,,,,,,,,,,,,,,,,,,,,,,,,,,,,,,,,,,,,,,,,,,,,,,nateheller,0,2025-09-11_15h05.09.545,tilt_staircase,2024.2.4,None,2025-09-11 15h05.27.046967 -0400,
,,,,,,,,,,,,,,,,,,,,,,,,,,,,,,,,,,,,,,,,,,,,,,,,,,,,,,,,66.5479884580127,66.55492504202994,66.55492504202994,116.72052099998109,space,50.159615791984834,None,,,,,,,,,,,,,,,,,,,,,,,,,,,,,,,,,,,,,,,,,,,,,,,,,,,,,,,,,,,,,nateheller,0,2025-09-11_15h05.09.545,tilt_staircase,2024.2.4,None,2025-09-11 15h05.27.046967 -0400,
-30,-60,left,0,0,0,,,,,100,left,1,2.6977792920079082,None,,,,,0,0,0,0,,,,,116.73384995799279,,,,,,,,,,,,,,,,,,,,,,,,,119.43486141698668,119.44247345800977,120.93196554202586,120.93757345800987,,,,,,,,116.72866137500387,116.73384995799279,117.21696708298987,117.21696708298987,117.2849025829928,117.2849025829928,117.2974957919796,119.43458537501283,left,1,2.6977792920079082,None,,,,,,,,,,,,,,,,,,,,,,,,,,,,,,,,,,,,,,,,,,,,,,,,,nateheller,0,2025-09-11_15h05.09.545,tilt_staircase,2024.2.4,None,2025-09-11 15h05.27.046967 -0400,
-30,0,left,1,1,0,,,,,100,left,1,1.3117500419612043,None,,,,,0,1,1,1,,,,,120.93757345800987,,,,,,,,,,,,,,,,,,,,,,,,,122.25903579202713,122.26399454200873,123.74878245801665,123.7542489580228,,,,,,,,120.93255341699114,120.93757345800987,121.43001054198248,121.43001054198248,121.50146787503036,121.50146787503036,121.514568625018,122.25891970802331,left,1,1.3117500419612043,None,,,,,,,,,,,,,,,,,,,,,,,,,,,,,,,,,,,,,,,,,,,,,,,,,nateheller,0,2025-09-11_15h05.09.545,tilt_staircase,2024.2.4,None,2025-09-11 15h05.27.046967 -0400,
30,60,right,2,2,0,,,,,100,right,1,1.396865374990739,None,,,,,0,2,2,2,,,,,123.7542489580228,,,,,,,,,,,,,,,,,,,,,,,,,125.1555435420014,125.16337179200491,126.64855137502309,126.65395700000226,,,,,,,,123.74933212500764,123.7542489580228,124.25564529199619,124.25564529199619,124.33120662497822,124.33120662497822,124.33728012500796,125.15543345798505,right,1,1.396865374990739,None,,,,,,,,,,,,,,,,,,,,,,,,,,,,,,,,,,,,,,,,,,,,,,,,,nateheller,0,2025-09-11_15h05.09.545,tilt_staircase,2024.2.4,None,2025-09-11 15h05.27.046967 -0400,
30,0,right,3,3,0,,,,,100,right,1,1.4284671249915846,None,,,,,0,3,3,3,,,,,126.65395700000226,,,,,,,,,,,,,,,,,,,,,,,,,128.0924885830027,128.09741529199528,129.58211000001756,129.58788516698405,,,,,,,,126.64907945803134,126.65395700000226,127.1563484580256,127.1563484580256,127.23108733299887,127.23108733299887,127.23108733299887,128.09236925002187,right,1,1.4284671249915846,None,,,,,,,,,,,,,,,,,,,,,,,,,,,,,,,,,,,,,,,,,,,,,,,,,nateheller,0,2025-09-11_15h05.09.545,tilt_staircase,2024.2.4,None,2025-09-11 15h05.27.046967 -0400,
-30,69,left,4,4,0,,,,,0,left,1,0.9815930419717915,None,,,,,0,4,4,4,,,,,129.58788516698405,,,,,,,,,,,,,,,,,,,,,,,,,130.57242391700856,130.5800137920305,132.06542833300773,132.07097204198362,,,,,,,,129.5827027920168,129.58788516698405,130.0886013749987,130.0886013749987,130.16452137503074,130.16452137503074,130.17021654202836,130.57230316702044,left,1,0.9815930419717915,None,,,,,,,,,,,,,,,,,,,,,,,,,,,,,,,,,,,,,,,,,,,,,,,,,nateheller,0,2025-09-11_15h05.09.545,tilt_staircase,2024.2.4,None,2025-09-11 15h05.27.046967 -0400,
30,69,right,5,5,0,,,,,0,right,1,0.8584875829983503,None,,,,,0,5,5,5,,,,,132.07097204198362,,,,,,,,,,,,,,,,,,,,,,,,,132.93325791700045,132.94067208300112,134.4321755830315,134.44063362502493,,,,,,,,132.0659740419942,132.07097204198362,132.57307516701985,132.57307516701985,132.64684370800387,132.64684370800387,132.64684370800387,132.9330904170056,right,1,0.8584875829983503,None,,,,,,,,,,,,,,,,,,,,,,,,,,,,,,,,,,,,,,,,,,,,,,,,,nateheller,0,2025-09-11_15h05.09.545,tilt_staircase,2024.2.4,None,2025-09-11 15h05.27.046967 -0400,
,,,,,,,,,,,,,,,,,,,,,,,,,,,,,,,,,,,,,,,,,,,,,,,,,,,,,,,,,,,,,,,,,,,,,,,,,,,134.43235216703033,134.44063362502493,134.44063362502493,145.53230991697637,space,11.087024084001314,None,,,,,,,,,,,,,,,,,,,,,,,,,,,,,,,,,,,,,,,,,,nateheller,0,2025-09-11_15h05.09.545,tilt_staircase,2024.2.4,None,2025-09-11 15h05.27.046967 -0400,
,,,0,0,0,,,,,,,,,,,,,,,,,,0,0,0,0,145.67920150002465,,,,,,,,,,,,,,,,,,,,,,,,,,,,,,,,,,,,,,,,,,,,,,,,,,,,,,,posc_negs,30,15,15,-15,"[5, 2, 1, 0.5]",lin,1,1,8,1,1,0,start,5,15,15,-30,145.67362820799462,145.67920150002465,146.03332866699202,146.03332866699202,146.10404179198667,146.10404179198667,146.10404179198667,146.6160779580241,1,,,,,,,,,,,,,,,nateheller,0,2025-09-11_15h05.09.545,tilt_staircase,2024.2.4,None,2025-09-11 15h05.27.046967 -0400,
,,,0,0,0,,,,,,,,,,,,,,,,,,0,0,0,0,146.62424020800972,,,,,,,,,,,,,,,,,,,,,,,,,,,,,,,,,,,,,,,,,,,,,,,,,,,,,,,negc_poss,30,-15,15,-15,"[5, 2, 1, 0.5]",lin,1,1,8,2,1,1,start,5,-15,-15,30,146.61719970800914,146.62424020800972,147.112925250025,147.112925250025,147.18703583301976,147.18703583301976,147.18703583301976,147.5674589999835,0,,,,,,,,,,,,,,,nateheller,0,2025-09-11_15h05.09.545,tilt_staircase,2024.2.4,None,2025-09-11 15h05.27.046967 -0400,
,,,0,0,0,,,,,,,,,,,,,,,,,,0,0,0,0,147.5761488749995,,,,,,,,,,,,,,,,,,,,,,,,,,,,,,,,,,,,,,,,,,,,,,,,,,,,,,,negc_negs,30,-15,15,-15,"[5, 2, 1, 0.5]",lin,1,1,8,0,1,2,start,5,-15,-15,-30,147.5687017919845,147.5761488749995,148.06302545801736,148.06302545801736,148.13729462499032,148.13729462499032,148.13729462499032,148.7558535829885,0,,,,,,,,,,,,,,,nateheller,0,2025-09-11_15h05.09.545,tilt_staircase,2024.2.4,None,2025-09-11 15h05.27.046967 -0400,
,,,0,0,0,,,,,,,,,,,,,,,,,,0,0,0,0,148.76437920797616,,,,,,,,,,,,,,,,,,,,,,,,,,,,,,,,,,,,,,,,,,,,,,,,,,,,,,,posc_poss,30,15,15,-15,"[5, 2, 1, 0.5]",lin,1,1,8,3,1,3,start,5,15,15,30,148.75690154201584,148.76437920797616,149.2577815420227,149.2577815420227,149.3310754999984,149.3310754999984,149.3310754999984,149.8711357919965,1,,,,,,,,,,,,,,,nateheller,0,2025-09-11_15h05.09.545,tilt_staircase,2024.2.4,None,2025-09-11 15h05.27.046967 -0400,
,,,0,0,0,,,,,,,,,,,,,,,,,,0,0,0,0,149.8795877500088,,,,,,,,,,,,,,,,,,,,,,,,,,,,,,,,,,,,,,,,,,,,,,,,,,,,,,,negc_noss,30,-15,15,-15,"[5, 2, 1, 0.5]",lin,1,1,8,4,1,4,start,5,-15,-15,,149.87154470803216,149.8795877500088,150.37287120800465,150.37287120800465,150.44763683300698,150.44763683300698,150.44763683300698,151.00537458300823,0,,,,,,,,,,,,,,,nateheller,0,2025-09-11_15h05.09.545,tilt_staircase,2024.2.4,None,2025-09-11 15h05.27.046967 -0400,
,,,0,0,0,,,,,,,,,,,,,,,,,,0,0,0,0,151.01368312502746,,,,,,,,,,,,,,,,,,,,,,,,,,,,,,,,,,,,,,,,,,,,,,,,,,,,,,,posc_noss,30,15,15,-15,"[5, 2, 1, 0.5]",lin,1,1,8,5,1,5,start,5,15,15,,151.00648416701006,151.01368312502746,151.50677266699495,151.50677266699495,151.58069545798935,151.58069545798935,151.58069545798935,152.05544825003017,1,,,,,,,,,,,,,,,nateheller,0,2025-09-11_15h05.09.545,tilt_staircase,2024.2.4,None,2025-09-11 15h05.27.046967 -0400,
,,,0,0,0,,,,,,,,,,,,,,,,,,0,0,0,0,152.06373870797688,,,,,,,,,,,,,,,,,,,,,,,,,,,,,,,,,,,,,,,,,,,,,,,,,,,,,,,posc_noss,30,15,15,-15,"[5, 2, 1, 0.5]",lin,1,1,8,5,2,6,down,5,10,10,,152.05651620798744,152.06373870797688,152.55648741702316,152.55648741702316,152.63090595800895,152.63090595800895,152.63090595800895,153.2493254999863,1,,,,,,,,,,,,,,,nateheller,0,2025-09-11_15h05.09.545,tilt_staircase,2024.2.4,None,2025-09-11 15h05.27.046967 -0400,
,,,0,0,0,,,,,,,,,,,,,,,,,,0,0,0,0,153.25779062497895,,,,,,,,,,,,,,,,,,,,,,,,,,,,,,,,,,,,,,,,,,,,,,,,,,,,,,,negc_poss,30,-15,15,-15,"[5, 2, 1, 0.5]",lin,1,1,8,2,2,7,up,5,-10,-10,30,153.25046958302846,153.25779062497895,153.74649808299728,153.74649808299728,153.82051091699395,153.82051091699395,153.82051091699395,154.33332299999893,0,,,,,,,,,,,,,,,nateheller,0,2025-09-11_15h05.09.545,tilt_staircase,2024.2.4,None,2025-09-11 15h05.27.046967 -0400,
,,,0,0,0,,,,,,,,,,,,,,,,,,0,0,0,0,154.33943904202897,,,,,,,,,,,,,,,,,,,,,,,,,,,,,,,,,,,,,,,,,,,,,,,,,,,,,,,posc_poss,30,15,15,-15,"[5, 2, 1, 0.5]",lin,1,1,8,3,2,8,down,5,10,10,30,154.33418712503044,154.33943904202897,154.82971770799486,154.82971770799486,154.90410329197766,154.90410329197766,154.90410329197766,155.7489256670233,1,,,,,,,,,,,,,,,nateheller,0,2025-09-11_15h05.09.545,tilt_staircase,2024.2.4,None,2025-09-11 15h05.27.046967 -0400,
,,,0,0,0,,,,,,,,,,,,,,,,,,0,0,0,0,155.75714341702405,,,,,,,,,,,,,,,,,,,,,,,,,,,,,,,,,,,,,,,,,,,,,,,,,,,,,,,negc_negs,30,-15,15,-15,"[5, 2, 1, 0.5]",lin,1,1,8,0,2,9,up,5,-10,-10,-30,155.74997783300932,155.75714341702405,156.2465782079962,156.2465782079962,156.31895829201676,156.31895829201676,156.31895829201676,156.9008617500076,0,,,,,,,,,,,,,,,nateheller,0,2025-09-11_15h05.09.545,tilt_staircase,2024.2.4,None,2025-09-11 15h05.27.046967 -0400,
,,,0,0,0,,,,,,,,,,,,,,,,,,0,0,0,0,156.90969216701342,,,,,,,,,,,,,,,,,,,,,,,,,,,,,,,,,,,,,,,,,,,,,,,,,,,,,,,negc_noss,30,-15,15,-15,"[5, 2, 1, 0.5]",lin,1,1,8,4,2,10,up,5,-10,-10,,156.90245933301048,156.90969216701342,157.3963013329776,157.3963013329776,157.46957241703058,157.46957241703058,157.46957241703058,158.0202886670013,0,,,,,,,,,,,,,,,nateheller,0,2025-09-11_15h05.09.545,tilt_staircase,2024.2.4,None,2025-09-11 15h05.27.046967 -0400,
,,,0,0,0,,,,,,,,,,,,,,,,,,0,0,0,0,158.02956404199358,,,,,,,,,,,,,,,,,,,,,,,,,,,,,,,,,,,,,,,,,,,,,,,,,,,,,,,posc_negs,30,15,15,-15,"[5, 2, 1, 0.5]",lin,1,1,8,1,2,11,down,5,10,10,-30,158.02131129201734,158.02956404199358,158.51343558297958,158.51343558297958,158.58665420801844,158.58665420801844,158.59735387499677,159.0365526669775,1,,,,,,,,,,,,,,,nateheller,0,2025-09-11_15h05.09.545,tilt_staircase,2024.2.4,None,2025-09-11 15h05.27.046967 -0400,
,,,0,0,0,,,,,,,,,,,,,,,,,,0,0,0,0,159.04626837500837,,,,,,,,,,,,,,,,,,,,,,,,,,,,,,,,,,,,,,,,,,,,,,,,,,,,,,,negc_poss,30,-15,15,-15,"[5, 2, 1, 0.5]",lin,1,1,8,2,3,12,up,5,-5,-5,30,159.03760691703064,159.04626837500837,159.52968533302192,159.52968533302192,159.6031312919804,159.6031312919804,159.61406204197556,160.138918792014,0,,,,,,,,,,,,,,,nateheller,0,2025-09-11_15h05.09.545,tilt_staircase,2024.2.4,None,2025-09-11 15h05.27.046967 -0400,
,,,0,0,0,,,,,,,,,,,,,,,,,,0,0,0,0,160.14732341701165,,,,,,,,,,,,,,,,,,,,,,,,,,,,,,,,,,,,,,,,,,,,,,,,,,,,,,,posc_negs,30,15,15,-15,"[5, 2, 1, 0.5]",lin,1,1,8,1,3,13,down,5,5,5,-30,160.13999779202277,160.14732341701165,160.6404128749855,160.6404128749855,160.71408262499608,160.71408262499608,160.71408262499608,161.29121545801172,1,,,,,,,,,,,,,,,nateheller,0,2025-09-11_15h05.09.545,tilt_staircase,2024.2.4,None,2025-09-11 15h05.27.046967 -0400,
,,,0,0,0,,,,,,,,,,,,,,,,,,0,0,0,0,161.29666804202134,,,,,,,,,,,,,,,,,,,,,,,,,,,,,,,,,,,,,,,,,,,,,,,,,,,,,,,negc_negs,30,-15,15,-15,"[5, 2, 1, 0.5]",lin,1,1,8,0,3,14,up,5,-5,-5,-30,161.2922205000068,161.29666804202134,161.7898861669819,161.7898861669819,161.86424729198916,161.86424729198916,161.86424729198916,162.69971950002946,0,,,,,,,,,,,,,,,nateheller,0,2025-09-11_15h05.09.545,tilt_staircase,2024.2.4,None,2025-09-11 15h05.27.046967 -0400,
,,,0,0,0,,,,,,,,,,,,,,,,,,0,0,0,0,162.70836300001247,,,,,,,,,,,,,,,,,,,,,,,,,,,,,,,,,,,,,,,,,,,,,,,,,,,,,,,posc_noss,30,15,15,-15,"[5, 2, 1, 0.5]",lin,1,1,8,5,3,15,down,5,5,5,,162.7013552080025,162.70836300001247,163.19650945800822,163.19650945800822,163.2684700419777,163.2684700419777,163.2684700419777,163.715354999993,1,,,,,,,,,,,,,,,nateheller,0,2025-09-11_15h05.09.545,tilt_staircase,2024.2.4,None,2025-09-11 15h05.27.046967 -0400,
,,,0,0,0,,,,,,,,,,,,,,,,,,0,0,0,0,163.72147258301266,,,,,,,,,,,,,,,,,,,,,,,,,,,,,,,,,,,,,,,,,,,,,,,,,,,,,,,negc_noss,30,-15,15,-15,"[5, 2, 1, 0.5]",lin,1,1,8,4,3,16,up,5,-5,-5,,163.7164637920214,163.72147258301266,164.20643020799616,164.20643020799616,164.28098987502744,164.28098987502744,164.28695712500485,164.83424345799722,0,,,,,,,,,,,,,,,nateheller,0,2025-09-11_15h05.09.545,tilt_staircase,2024.2.4,None,2025-09-11 15h05.27.046967 -0400,
,,,0,0,0,,,,,,,,,,,,,,,,,,0,0,0,0,164.84257179201813,,,,,,,,,,,,,,,,,,,,,,,,,,,,,,,,,,,,,,,,,,,,,,,,,,,,,,,posc_poss,30,15,15,-15,"[5, 2, 1, 0.5]",lin,1,1,8,3,3,17,down,5,5,5,30,164.8354431670159,164.84257179201813,165.32961570797488,165.32961570797488,165.40274358302122,165.40274358302122,165.40274358302122,166.8831689170329,0,,,,,,,,,,,,,,,nateheller,0,2025-09-11_15h05.09.545,tilt_staircase,2024.2.4,None,2025-09-11 15h05.27.046967 -0400,
,,,0,0,0,,,,,,,,,,,,,,,,,,0,0,0,0,166.8917167080217,,,,,,,,,,,,,,,,,,,,,,,,,,,,,,,,,,,,,,,,,,,,,,,,,,,,,,,negc_poss,30,-15,15,-15,"[5, 2, 1, 0.5]",lin,1,1,8,2,4,18,up,5,0,0,30,166.88452366698766,166.8917167080217,167.38074824999785,167.38074824999785,167.45361383300042,167.45361383300042,167.45361383300042,168.0328640419757,0,,,,,,,,,,,,,,,nateheller,0,2025-09-11_15h05.09.545,tilt_staircase,2024.2.4,None,2025-09-11 15h05.27.046967 -0400,
,,,0,0,0,,,,,,,,,,,,,,,,,,0,0,0,0,168.04127400001744,,,,,,,,,,,,,,,,,,,,,,,,,,,,,,,,,,,,,,,,,,,,,,,,,,,,,,,posc_negs,30,15,15,-15,"[5, 2, 1, 0.5]",lin,1,1,8,1,4,19,down,5,0,0,-30,168.03418337501353,168.04127400001744,168.52955145802116,168.52955145802116,168.60231779201422,168.60231779201422,168.60231779201422,169.088860207994,1,,,,,,,,,,,,,,,nateheller,0,2025-09-11_15h05.09.545,tilt_staircase,2024.2.4,None,2025-09-11 15h05.27.046967 -0400,
,,,0,0,0,,,,,,,,,,,,,,,,,,0,0,0,0,169.09744354197755,,,,,,,,,,,,,,,,,,,,,,,,,,,,,,,,,,,,,,,,,,,,,,,,,,,,,,,posc_poss,30,15,15,-15,"[5, 2, 1, 0.5]",lin,1,1,8,3,4,20,up,2,7,7,30,169.09017979202326,169.09744354197755,169.5895080420305,169.5895080420305,169.66435762500623,169.66435762500623,169.66435762500623,170.2258671669988,1,,,,,,,,,,,,,,,nateheller,0,2025-09-11_15h05.09.545,tilt_staircase,2024.2.4,None,2025-09-11 15h05.27.046967 -0400,
,,,0,0,0,,,,,,,,,,,,,,,,,,0,0,0,0,170.24737587501295,,,,,,,,,,,,,,,,,,,,,,,,,,,,,,,,,,,,,,,,,,,,,,,,,,,,,,,negc_negs,30,-15,15,-15,"[5, 2, 1, 0.5]",lin,1,1,8,0,4,21,up,5,0,0,-30,170.22686691698618,170.24737587501295,170.7222367079812,170.7222367079812,170.79739216697635,170.79739216697635,170.80346841702703,171.3219785420224,1,,,,,,,,,,,,,,,nateheller,0,2025-09-11_15h05.09.545,tilt_staircase,2024.2.4,None,2025-09-11 15h05.27.046967 -0400,
,,,0,0,0,,,,,,,,,,,,,,,,,,0,0,0,0,171.33061512501445,,,,,,,,,,,,,,,,,,,,,,,,,,,,,,,,,,,,,,,,,,,,,,,,,,,,,,,posc_noss,30,15,15,-15,"[5, 2, 1, 0.5]",lin,1,1,8,5,4,22,down,5,0,0,,171.32326154201292,171.33061512501445,171.82320270797936,171.82320270797936,171.8976875829976,171.8976875829976,171.8976875829976,173.01649895799346,0,,,,,,,,,,,,,,,nateheller,0,2025-09-11_15h05.09.545,tilt_staircase,2024.2.4,None,2025-09-11 15h05.27.046967 -0400,
,,,0,0,0,,,,,,,,,,,,,,,,,,0,0,0,0,173.02548791700974,,,,,,,,,,,,,,,,,,,,,,,,,,,,,,,,,,,,,,,,,,,,,,,,,,,,,,,negc_noss,30,-15,15,-15,"[5, 2, 1, 0.5]",lin,1,1,8,4,4,23,up,5,0,0,,173.01816345797852,173.02548791700974,173.5137671669945,173.5137671669945,173.58516129199415,173.58516129199415,173.58516129199415,174.3082246669801,1,,,,,,,,,,,,,,,nateheller,0,2025-09-11_15h05.09.545,tilt_staircase,2024.2.4,None,2025-09-11 15h05.27.046967 -0400,
,,,0,0,0,,,,,,,,,,,,,,,,,,0,0,0,0,174.3136477919761,,,,,,,,,,,,,,,,,,,,,,,,,,,,,,,,,,,,,,,,,,,,,,,,,,,,,,,posc_negs,30,15,15,-15,"[5, 2, 1, 0.5]",lin,1,1,8,1,5,24,down,5,-5,-5,-30,174.30926599999657,174.3136477919761,174.80688791698776,174.80688791698776,174.8810228750226,174.8810228750226,174.8810228750226,175.53291391697712,0,,,,,,,,,,,,,,,nateheller,0,2025-09-11_15h05.09.545,tilt_staircase,2024.2.4,None,2025-09-11 15h05.27.046967 -0400,
,,,0,0,0,,,,,,,,,,,,,,,,,,0,0,0,0,175.54134941700613,,,,,,,,,,,,,,,,,,,,,,,,,,,,,,,,,,,,,,,,,,,,,,,,,,,,,,,negc_poss,30,-15,15,-15,"[5, 2, 1, 0.5]",lin,1,1,8,2,5,25,up,5,5,5,30,175.53415829199366,175.54134941700613,176.02955620799912,176.02955620799912,176.10322020802414,176.10322020802414,176.10322020802414,176.63326637499267,1,,,,,,,,,,,,,,,nateheller,0,2025-09-11_15h05.09.545,tilt_staircase,2024.2.4,None,2025-09-11 15h05.27.046967 -0400,
,,,0,0,0,,,,,,,,,,,,,,,,,,0,0,0,0,176.64203429198824,,,,,,,,,,,,,,,,,,,,,,,,,,,,,,,,,,,,,,,,,,,,,,,,,,,,,,,negc_noss,30,-15,15,-15,"[5, 2, 1, 0.5]",lin,1,1,8,4,5,26,down,2,-2,-2,,176.63467558298726,176.64203429198824,177.12987975002034,177.12987975002034,177.20344058301998,177.20344058301998,177.20344058301998,177.65928529202938,0,,,,,,,,,,,,,,,nateheller,0,2025-09-11_15h05.09.545,tilt_staircase,2024.2.4,None,2025-09-11 15h05.27.046967 -0400,
,,,0,0,0,,,,,,,,,,,,,,,,,,0,0,0,0,177.680540958012,,,,,,,,,,,,,,,,,,,,,,,,,,,,,,,,,,,,,,,,,,,,,,,,,,,,,,,posc_poss,30,15,15,-15,"[5, 2, 1, 0.5]",lin,1,1,8,3,5,27,down,1,6,6,30,177.660318041977,177.680540958012,178.15652083302848,178.15652083302848,178.23103041702416,178.23103041702416,178.23736912501045,178.71922533301404,1,,,,,,,,,,,,,,,nateheller,0,2025-09-11_15h05.09.545,tilt_staircase,2024.2.4,None,2025-09-11 15h05.27.046967 -0400,
,,,0,0,0,,,,,,,,,,,,,,,,,,0,0,0,0,178.72977837501094,,,,,,,,,,,,,,,,,,,,,,,,,,,,,,,,,,,,,,,,,,,,,,,,,,,,,,,posc_noss,30,15,15,-15,"[5, 2, 1, 0.5]",lin,1,1,8,5,5,28,up,2,2,2,,178.72023337503197,178.72977837501094,179.21292220801115,179.21292220801115,179.2868692500051,179.2868692500051,179.29771641700063,179.71610454202164,1,,,,,,,,,,,,,,,nateheller,0,2025-09-11_15h05.09.545,tilt_staircase,2024.2.4,None,2025-09-11 15h05.27.046967 -0400,
,,,0,0,0,,,,,,,,,,,,,,,,,,0,0,0,0,179.72364233300323,,,,,,,,,,,,,,,,,,,,,,,,,,,,,,,,,,,,,,,,,,,,,,,,,,,,,,,negc_negs,30,-15,15,-15,"[5, 2, 1, 0.5]",lin,1,1,8,0,5,29,down,2,-2,-2,-30,179.71718904201407,179.72364233300323,180.21287879202282,180.21287879202282,180.28753391699865,180.28753391699865,180.28753391699865,180.8386144579854,1,,,,,,,,,,,,,,,nateheller,0,2025-09-11_15h05.09.545,tilt_staircase,2024.2.4,None,2025-09-11 15h05.27.046967 -0400,
,,,0,0,0,,,,,,,,,,,,,,,,,,0,0,0,0,180.84701116703218,,,,,,,,,,,,,,,,,,,,,,,,,,,,,,,,,,,,,,,,,,,,,,,,,,,,,,,posc_negs,30,15,15,-15,"[5, 2, 1, 0.5]",lin,1,1,8,1,6,30,up,2,-3,-3,-30,180.83968137501506,180.84701116703218,181.34003983298317,181.34003983298317,181.41436712502036,181.41436712502036,181.41436712502036,181.8890252080164,0,,,,,,,,,,,,,,,nateheller,0,2025-09-11_15h05.09.545,tilt_staircase,2024.2.4,None,2025-09-11 15h05.27.046967 -0400,
,,,0,0,0,,,,,,,,,,,,,,,,,,0,0,0,0,181.89756499999203,,,,,,,,,,,,,,,,,,,,,,,,,,,,,,,,,,,,,,,,,,,,,,,,,,,,,,,posc_noss,30,15,15,-15,"[5, 2, 1, 0.5]",lin,1,1,8,5,6,31,down,1,1,1,,181.8903449170175,181.89756499999203,182.3899306670064,182.3899306670064,182.46417099999962,182.46417099999962,182.46417099999962,183.0886023750063,1,,,,,,,,,,,,,,,nateheller,0,2025-09-11_15h05.09.545,tilt_staircase,2024.2.4,None,2025-09-11 15h05.27.046967 -0400,
,,,0,0,0,,,,,,,,,,,,,,,,,,0,0,0,0,183.09688537498005,,,,,,,,,,,,,,,,,,,,,,,,,,,,,,,,,,,,,,,,,,,,,,,,,,,,,,,negc_poss,30,-15,15,-15,"[5, 2, 1, 0.5]",lin,1,1,8,2,6,32,down,2,3,3,30,183.08965350000653,183.09688537498005,183.58964845800074,183.58964845800074,183.6642636670149,183.6642636670149,183.6642636670149,184.08328987500863,0,,,,,,,,,,,,,,,nateheller,0,2025-09-11_15h05.09.545,tilt_staircase,2024.2.4,None,2025-09-11 15h05.27.046967 -0400,
,,,0,0,0,,,,,,,,,,,,,,,,,,0,0,0,0,184.09153345797677,,,,,,,,,,,,,,,,,,,,,,,,,,,,,,,,,,,,,,,,,,,,,,,,,,,,,,,posc_poss,30,15,15,-15,"[5, 2, 1, 0.5]",lin,1,1,8,3,6,33,down,1,5,5,30,184.0844199170242,184.09153345797677,184.57954008301022,184.57954008301022,184.65364962501917,184.65364962501917,184.65364962501917,184.98548716702498,1,,,,,,,,,,,,,,,nateheller,0,2025-09-11_15h05.09.545,tilt_staircase,2024.2.4,None,2025-09-11 15h05.27.046967 -0400,
,,,0,0,0,,,,,,,,,,,,,,,,,,0,0,0,0,184.9945125830127,,,,,,,,,,,,,,,,,,,,,,,,,,,,,,,,,,,,,,,,,,,,,,,,,,,,,,,negc_negs,30,-15,15,-15,"[5, 2, 1, 0.5]",lin,1,1,8,0,6,34,down,2,-4,-4,-30,184.98717879201286,184.9945125830127,185.4797250420088,185.4797250420088,185.5535834999755,185.5535834999755,185.56406241701916,185.9497888329788,0,,,,,,,,,,,,,,,nateheller,0,2025-09-11_15h05.09.545,tilt_staircase,2024.2.4,None,2025-09-11 15h05.27.046967 -0400,
,,,0,0,0,,,,,,,,,,,,,,,,,,0,0,0,0,185.95789516699733,,,,,,,,,,,,,,,,,,,,,,,,,,,,,,,,,,,,,,,,,,,,,,,,,,,,,,,negc_noss,30,-15,15,-15,"[5, 2, 1, 0.5]",lin,1,1,8,4,6,35,up,1,-1,-1,,185.9509503750014,185.95789516699733,186.44674475002103,186.44674475002103,186.5209868749953,186.5209868749953,186.5209868749953,186.98857208300615,0,,,,,,,,,,,,,,,nateheller,0,2025-09-11_15h05.09.545,tilt_staircase,2024.2.4,None,2025-09-11 15h05.27.046967 -0400,
,,,0,0,0,,,,,,,,,,,,,,,,,,0,0,0,0,186.99676154198823,,,,,,,,,,,,,,,,,,,,,,,,,,,,,,,,,,,,,,,,,,,,,,,,,,,,,,,negc_negs,30,-15,15,-15,"[5, 2, 1, 0.5]",lin,1,1,8,0,7,36,up,1,-3,-3,-30,186.98960933298804,186.99676154198823,187.4885869580321,187.4885869580321,187.56424625002546,187.56424625002546,187.56424625002546,188.17211666703224,0,,,,,,,,,,,,,,,nateheller,0,2025-09-11_15h05.09.545,tilt_staircase,2024.2.4,None,2025-09-11 15h05.27.046967 -0400,
,,,0,0,0,,,,,,,,,,,,,,,,,,0,0,0,0,188.1806926249992,,,,,,,,,,,,,,,,,,,,,,,,,,,,,,,,,,,,,,,,,,,,,,,,,,,,,,,posc_noss,30,15,15,-15,"[5, 2, 1, 0.5]",lin,1,1,8,5,7,37,down,1,0,0,,188.1733560829889,188.1806926249992,188.67250149999745,188.67250149999745,188.7475885829772,188.7475885829772,188.7475885829772,189.36559583299095,0,,,,,,,,,,,,,,,nateheller,0,2025-09-11_15h05.09.545,tilt_staircase,2024.2.4,None,2025-09-11 15h05.27.046967 -0400,
,,,0,0,0,,,,,,,,,,,,,,,,,,0,0,0,0,189.3737085830071,,,,,,,,,,,,,,,,,,,,,,,,,,,,,,,,,,,,,,,,,,,,,,,,,,,,,,,posc_negs,30,15,15,-15,"[5, 2, 1, 0.5]",lin,1,1,8,1,7,38,up,2,-1,-1,-30,189.36661274998914,189.3737085830071,189.86284600000363,189.86284600000363,189.9370605419972,189.9370605419972,189.9370605419972,190.4303813750157,1,,,,,,,,,,,,,,,nateheller,0,2025-09-11_15h05.09.545,tilt_staircase,2024.2.4,None,2025-09-11 15h05.27.046967 -0400,
,,,0,0,0,,,,,,,,,,,,,,,,,,0,0,0,0,190.43574699998135,,,,,,,,,,,,,,,,,,,,,,,,,,,,,,,,,,,,,,,,,,,,,,,,,,,,,,,posc_poss,30,15,15,-15,"[5, 2, 1, 0.5]",lin,1,1,8,3,7,39,down,1,4,4,30,190.4314033749979,190.43574699998135,190.9228771670023,190.9228771670023,190.99764991702978,190.99764991702978,191.00323879200732,191.47523441701196,0,,,,,,,,,,,,,,,nateheller,0,2025-09-11_15h05.09.545,tilt_staircase,2024.2.4,None,2025-09-11 15h05.27.046967 -0400,
,,,0,0,0,,,,,,,,,,,,,,,,,,0,0,0,0,191.48066749999998,,,,,,,,,,,,,,,,,,,,,,,,,,,,,,,,,,,,,,,,,,,,,,,,,,,,,,,negc_noss,30,-15,15,-15,"[5, 2, 1, 0.5]",lin,1,1,8,4,7,40,up,1,0,0,,191.4762379170279,191.48066749999998,191.9737409169902,191.9737409169902,192.04760504199658,192.04760504199658,192.05351345799863,192.59961112501333,1,,,,,,,,,,,,,,,nateheller,0,2025-09-11_15h05.09.545,tilt_staircase,2024.2.4,None,2025-09-11 15h05.27.046967 -0400,
,,,0,0,0,,,,,,,,,,,,,,,,,,0,0,0,0,192.6084477499826,,,,,,,,,,,,,,,,,,,,,,,,,,,,,,,,,,,,,,,,,,,,,,,,,,,,,,,negc_poss,30,-15,15,-15,"[5, 2, 1, 0.5]",lin,1,1,8,2,7,41,up,1,4,4,30,192.6011723750271,192.6084477499826,193.09624108299613,193.09624108299613,193.1704837080324,193.1704837080324,193.1704837080324,193.65519062499516,1,,,,,,,,,,,,,,,nateheller,0,2025-09-11_15h05.09.545,tilt_staircase,2024.2.4,None,2025-09-11 15h05.27.046967 -0400,
,,,0,0,0,,,,,,,,,,,,,,,,,,0,0,0,0,193.66367358301068,,,,,,,,,,,,,,,,,,,,,,,,,,,,,,,,,,,,,,,,,,,,,,,,,,,,,,,posc_negs,30,15,15,-15,"[5, 2, 1, 0.5]",lin,1,1,8,1,8,42,down,1,-2,-2,-30,193.65629775001435,193.66367358301068,194.15657787502278,194.15657787502278,194.23095624998678,194.23095624998678,194.23095624998678,194.82506266701967,1,,,,,,,,,,,,,,,nateheller,0,2025-09-11_15h05.09.545,tilt_staircase,2024.2.4,None,2025-09-11 15h05.27.046967 -0400,
,,,0,0,0,,,,,,,,,,,,,,,,,,0,0,0,0,194.83077529200818,,,,,,,,,,,,,,,,,,,,,,,,,,,,,,,,,,,,,,,,,,,,,,,,,,,,,,,posc_noss,30,15,15,-15,"[5, 2, 1, 0.5]",lin,1,1,8,5,8,43,up,0.5,0.5,0.5,,194.82612045801943,194.83077529200818,195.322643875028,195.322643875028,195.39666654198663,195.39666654198663,195.39666654198663,196.06581312499475,1,,,,,,,,,,,,,,,nateheller,0,2025-09-11_15h05.09.545,tilt_staircase,2024.2.4,None,2025-09-11 15h05.27.046967 -0400,
,,,0,0,0,,,,,,,,,,,,,,,,,,0,0,0,0,196.07389524998143,,,,,,,,,,,,,,,,,,,,,,,,,,,,,,,,,,,,,,,,,,,,,,,,,,,,,,,negc_poss,30,-15,15,-15,"[5, 2, 1, 0.5]",lin,1,1,8,2,8,44,down,0.5,3.5,3.5,30,196.06684849999147,196.07389524998143,196.56280741700903,196.56280741700903,196.63714449998224,196.63714449998224,196.63714449998224,197.24897424998926,1,,,,,,,,,,,,,,,nateheller,0,2025-09-11_15h05.09.545,tilt_staircase,2024.2.4,None,2025-09-11 15h05.27.046967 -0400,
,,,0,0,0,,,,,,,,,,,,,,,,,,0,0,0,0,197.2567389580072,,,,,,,,,,,,,,,,,,,,,,,,,,,,,,,,,,,,,,,,,,,,,,,,,,,,,,,posc_poss,30,15,15,-15,"[5, 2, 1, 0.5]",lin,1,1,8,3,8,45,up,0.5,4.5,4.5,30,197.25002475001384,197.2567389580072,197.7462993329973,197.7462993329973,197.8202391670202,197.8202391670202,197.8202391670202,198.36524437501794,1,,,,,,,,,,,,,,,nateheller,0,2025-09-11_15h05.09.545,tilt_staircase,2024.2.4,None,2025-09-11 15h05.27.046967 -0400,
,,,0,0,0,,,,,,,,,,,,,,,,,,0,0,0,0,198.37315845798003,,,,,,,,,,,,,,,,,,,,,,,,,,,,,,,,,,,,,,,,,,,,,,,,,,,,,,,negc_negs,30,-15,15,-15,"[5, 2, 1, 0.5]",lin,1,1,8,0,8,46,up,1,-2,-2,-30,198.36621125001693,198.37315845798003,198.85612620803295,198.85612620803295,198.93107599997893,198.93107599997893,198.93726749997586,199.50078708300134,1,,,,,,,,,,,,,,,nateheller,0,2025-09-11_15h05.09.545,tilt_staircase,2024.2.4,None,2025-09-11 15h05.27.046967 -0400,
,,,0,0,0,,,,,,,,,,,,,,,,,,0,0,0,0,199.50931308302097,,,,,,,,,,,,,,,,,,,,,,,,,,,,,,,,,,,,,,,,,,,,,,,,,,,,,,,negc_noss,30,-15,15,-15,"[5, 2, 1, 0.5]",lin,1,1,8,4,8,47,down,0.5,-0.5,-0.5,,199.5020017499919,199.50931308302097,199.9961387499934,199.9961387499934,200.07025450002402,200.07025450002402,200.07025450002402,200.69172470801277,0,,,,,,,,,,,,,,,nateheller,0,2025-09-11_15h05.09.545,tilt_staircase,2024.2.4,None,2025-09-11 15h05.27.046967 -0400,
,,,0,0,0,,,,,,,,,,,,,,,,,,0,0,0,0,200.6973677080241,,,,,,,,,,,,,,,,,,,,,,,,,,,,,,,,,,,,,,,,,,,,,,,,,,,,,,,posc_negs,30,15,15,-15,"[5, 2, 1, 0.5]",lin,1,1,8,1,9,48,down,1,-3,-3,-30,200.692807000014,200.6973677080241,201.18839329201728,201.18839329201728,201.26426145801088,201.26426145801088,201.2701690000249,201.8091294170008,1,,,,,,,,,,,,,,,nateheller,0,2025-09-11_15h05.09.545,tilt_staircase,2024.2.4,None,2025-09-11 15h05.27.046967 -0400,
,,,0,0,0,,,,,,,,,,,,,,,,,,0,0,0,0,201.830698249978,,,,,,,,,,,,,,,,,,,,,,,,,,,,,,,,,,,,,,,,,,,,,,,,,,,,,,,negc_negs,30,-15,15,-15,"[5, 2, 1, 0.5]",lin,1,1,8,0,9,49,down,0.5,-2.5,-2.5,-30,201.81014262500685,201.830698249978,202.30503950000275,202.30503950000275,202.38091829197947,202.38091829197947,202.3867893749848,202.84894437500043,1,,,,,,,,,,,,,,,nateheller,0,2025-09-11_15h05.09.545,tilt_staircase,2024.2.4,None,2025-09-11 15h05.27.046967 -0400,
,,,0,0,0,,,,,,,,,,,,,,,,,,0,0,0,0,202.85616729198955,,,,,,,,,,,,,,,,,,,,,,,,,,,,,,,,,,,,,,,,,,,,,,,,,,,,,,,negc_poss,30,-15,15,-15,"[5, 2, 1, 0.5]",lin,1,1,8,2,9,50,down,0.5,3.0,3.0,30,202.84988779202104,202.85616729198955,203.34615095797926,203.34615095797926,203.42014054203173,203.42014054203173,203.42014054203173,204.01571800000966,1,,,,,,,,,,,,,,,nateheller,0,2025-09-11_15h05.09.545,tilt_staircase,2024.2.4,None,2025-09-11 15h05.27.046967 -0400,
,,,0,0,0,,,,,,,,,,,,,,,,,,0,0,0,0,204.0242063329788,,,,,,,,,,,,,,,,,,,,,,,,,,,,,,,,,,,,,,,,,,,,,,,,,,,,,,,negc_noss,30,-15,15,-15,"[5, 2, 1, 0.5]",lin,1,1,8,4,9,51,up,0.5,0.0,0.0,,204.0169749999768,204.0242063329788,204.51284170802683,204.51284170802683,204.58756958303275,204.58756958303275,204.58756958303275,205.09723462502006,1,,,,,,,,,,,,,,,nateheller,0,2025-09-11_15h05.09.545,tilt_staircase,2024.2.4,None,2025-09-11 15h05.27.046967 -0400,
,,,0,0,0,,,,,,,,,,,,,,,,,,0,0,0,0,205.10260575002758,,,,,,,,,,,,,,,,,,,,,,,,,,,,,,,,,,,,,,,,,,,,,,,,,,,,,,,posc_noss,30,15,15,-15,"[5, 2, 1, 0.5]",lin,1,1,8,5,9,52,down,0.5,0.0,0.0,,205.0981380000012,205.10260575002758,205.59047808300238,205.59047808300238,205.6697636669851,205.6697636669851,205.6697636669851,206.1663900000276,1,,,,,,,,,,,,,,,nateheller,0,2025-09-11_15h05.09.545,tilt_staircase,2024.2.4,None,2025-09-11 15h05.27.046967 -0400,
,,,0,0,0,,,,,,,,,,,,,,,,,,0,0,0,0,206.17466570797842,,,,,,,,,,,,,,,,,,,,,,,,,,,,,,,,,,,,,,,,,,,,,,,,,,,,,,,posc_poss,30,15,15,-15,"[5, 2, 1, 0.5]",lin,1,1,8,3,9,53,down,0.5,4.0,4.0,30,206.16750129201682,206.17466570797842,206.6628784170025,206.6628784170025,206.73626445798436,206.73626445798436,206.73626445798436,207.27028041699668,1,,,,,,,,,,,,,,,nateheller,0,2025-09-11_15h05.09.545,tilt_staircase,2024.2.4,None,2025-09-11 15h05.27.046967 -0400,
,,,0,0,0,,,,,,,,,,,,,,,,,,0,0,0,0,207.27933570800815,,,,,,,,,,,,,,,,,,,,,,,,,,,,,,,,,,,,,,,,,,,,,,,,,,,,,,,posc_poss,30,15,15,-15,"[5, 2, 1, 0.5]",lin,1,1,8,3,10,54,down,0.5,3.5,3.5,30,207.27129679202335,207.27933570800815,207.7696572500281,207.7696572500281,207.8468455420225,207.8468455420225,207.8468455420225,208.19795895798597,0,,,,,,,,,,,,,,,nateheller,0,2025-09-11_15h05.09.545,tilt_staircase,2024.2.4,None,2025-09-11 15h05.27.046967 -0400,
,,,0,0,0,,,,,,,,,,,,,,,,,,0,0,0,0,208.20366133301286,,,,,,,,,,,,,,,,,,,,,,,,,,,,,,,,,,,,,,,,,,,,,,,,,,,,,,,posc_negs,30,15,15,-15,"[5, 2, 1, 0.5]",lin,1,1,8,1,10,55,down,1,-4,-4,-30,208.19854558299994,208.20366133301286,208.69057149998844,208.69057149998844,208.76429374999134,208.76429374999134,208.77084370801458,209.41618841700256,1,,,,,,,,,,,,,,,nateheller,0,2025-09-11_15h05.09.545,tilt_staircase,2024.2.4,None,2025-09-11 15h05.27.046967 -0400,
,,,0,0,0,,,,,,,,,,,,,,,,,,0,0,0,0,209.4244718750124,,,,,,,,,,,,,,,,,,,,,,,,,,,,,,,,,,,,,,,,,,,,,,,,,,,,,,,negc_poss,30,-15,15,-15,"[5, 2, 1, 0.5]",lin,1,1,8,2,10,56,down,0.5,2.5,2.5,30,209.4173338750261,209.4244718750124,209.91286829201272,209.91286829201272,209.98483800003305,209.98483800003305,209.98483800003305,210.5996616249904,0,,,,,,,,,,,,,,,nateheller,0,2025-09-11_15h05.09.545,tilt_staircase,2024.2.4,None,2025-09-11 15h05.27.046967 -0400,
,,,0,0,0,,,,,,,,,,,,,,,,,,0,0,0,0,210.6078635000158,,,,,,,,,,,,,,,,,,,,,,,,,,,,,,,,,,,,,,,,,,,,,,,,,,,,,,,negc_negs,30,-15,15,-15,"[5, 2, 1, 0.5]",lin,1,1,8,0,10,57,down,0.5,-3.0,-3.0,-30,210.60083812498488,210.6078635000158,211.09613887500018,211.09613887500018,211.17057758301962,211.17057758301962,211.17057758301962,211.7722788330284,1,,,,,,,,,,,,,,,nateheller,0,2025-09-11_15h05.09.545,tilt_staircase,2024.2.4,None,2025-09-11 15h05.27.046967 -0400,
,,,0,0,0,,,,,,,,,,,,,,,,,,0,0,0,0,211.78071495797485,,,,,,,,,,,,,,,,,,,,,,,,,,,,,,,,,,,,,,,,,,,,,,,,,,,,,,,negc_noss,30,-15,15,-15,"[5, 2, 1, 0.5]",lin,1,1,8,4,10,58,down,0.5,-0.5,-0.5,,211.77340833301423,211.78071495797485,212.27258570800768,212.27258570800768,212.3477017499972,212.3477017499972,212.3477017499972,213.58318804198643,1,,,,,,,,,,,,,,,nateheller,0,2025-09-11_15h05.09.545,tilt_staircase,2024.2.4,None,2025-09-11 15h05.27.046967 -0400,
,,,0,0,0,,,,,,,,,,,,,,,,,,0,0,0,0,213.59159979200922,,,,,,,,,,,,,,,,,,,,,,,,,,,,,,,,,,,,,,,,,,,,,,,,,,,,,,,posc_noss,30,15,15,-15,"[5, 2, 1, 0.5]",lin,1,1,8,5,10,59,down,0.5,-0.5,-0.5,,213.58438670798205,213.59159979200922,214.0808981669834,214.0808981669834,214.15370324999094,214.15370324999094,214.15370324999094,214.80076545802876,0,,,,,,,,,,,,,,,nateheller,0,2025-09-11_15h05.09.545,tilt_staircase,2024.2.4,None,2025-09-11 15h05.27.046967 -0400,
,,,0,0,0,,,,,,,,,,,,,,,,,,0,0,0,0,214.80924362502992,,,,,,,,,,,,,,,,,,,,,,,,,,,,,,,,,,,,,,,,,,,,,,,,,,,,,,,negc_negs,30,-15,15,-15,"[5, 2, 1, 0.5]",lin,1,1,8,0,11,60,down,0.5,-3.5,-3.5,-30,214.8020995000261,214.80924362502992,215.2962254579761,215.2962254579761,215.3680922500207,215.3680922500207,215.3680922500207,215.68336033303058,1,,,,,,,,,,,,,,,nateheller,0,2025-09-11_15h05.09.545,tilt_staircase,2024.2.4,None,2025-09-11 15h05.27.046967 -0400,
,,,0,0,0,,,,,,,,,,,,,,,,,,0,0,0,0,215.69260541698895,,,,,,,,,,,,,,,,,,,,,,,,,,,,,,,,,,,,,,,,,,,,,,,,,,,,,,,negc_poss,30,-15,15,-15,"[5, 2, 1, 0.5]",lin,1,1,8,2,11,61,up,0.5,3.0,3.0,30,215.6852890420123,215.69260541698895,216.17944641702343,216.17944641702343,216.25311150000198,216.25311150000198,216.25311150000198,217.2172515830025,1,,,,,,,,,,,,,,,nateheller,0,2025-09-11_15h05.09.545,tilt_staircase,2024.2.4,None,2025-09-11 15h05.27.046967 -0400,
,,,0,0,0,,,,,,,,,,,,,,,,,,0,0,0,0,217.22562408301746,,,,,,,,,,,,,,,,,,,,,,,,,,,,,,,,,,,,,,,,,,,,,,,,,,,,,,,posc_negs,30,15,15,-15,"[5, 2, 1, 0.5]",lin,1,1,8,1,11,62,down,1,-5,-5,-30,217.21848241699627,217.22562408301746,217.71278900001198,217.71278900001198,217.7870302919764,217.7870302919764,217.7870302919764,218.32216595800128,0,,,,,,,,,,,,,,,nateheller,0,2025-09-11_15h05.09.545,tilt_staircase,2024.2.4,None,2025-09-11 15h05.27.046967 -0400,
,,,0,0,0,,,,,,,,,,,,,,,,,,0,0,0,0,218.33020437503,,,,,,,,,,,,,,,,,,,,,,,,,,,,,,,,,,,,,,,,,,,,,,,,,,,,,,,posc_poss,30,15,15,-15,"[5, 2, 1, 0.5]",lin,1,1,8,3,11,63,up,0.5,4.0,4.0,30,218.32318208302604,218.33020437503,218.8229756670189,218.8229756670189,218.89741020801011,218.89741020801011,218.89741020801011,219.40495945798466,1,,,,,,,,,,,,,,,nateheller,0,2025-09-11_15h05.09.545,tilt_staircase,2024.2.4,None,2025-09-11 15h05.27.046967 -0400,
,,,0,0,0,,,,,,,,,,,,,,,,,,0,0,0,0,219.41339191701263,,,,,,,,,,,,,,,,,,,,,,,,,,,,,,,,,,,,,,,,,,,,,,,,,,,,,,,posc_noss,30,15,15,-15,"[5, 2, 1, 0.5]",lin,1,1,8,5,11,64,up,0.5,0.0,0.0,,219.40605541702826,219.41339191701263,219.90547549998155,219.90547549998155,219.98045487498166,219.98045487498166,219.98045487498166,220.64229062502272,1,,,,,,,,,,,,,,,nateheller,0,2025-09-11_15h05.09.545,tilt_staircase,2024.2.4,None,2025-09-11 15h05.27.046967 -0400,
,,,0,0,0,,,,,,,,,,,,,,,,,,0,0,0,0,220.66389862500364,,,,,,,,,,,,,,,,,,,,,,,,,,,,,,,,,,,,,,,,,,,,,,,,,,,,,,,negc_noss,30,-15,15,-15,"[5, 2, 1, 0.5]",lin,1,1,8,4,11,65,down,0.5,-1.0,-1.0,,220.64330250001512,220.66389862500364,221.13863745803246,221.13863745803246,221.21378091699444,221.21378091699444,221.2199519579881,221.64935862499988,0,,,,,,,,,,,,,,,nateheller,0,2025-09-11_15h05.09.545,tilt_staircase,2024.2.4,None,2025-09-11 15h05.27.046967 -0400,
,,,0,0,0,,,,,,,,,,,,,,,,,,0,0,0,0,221.65776191698387,,,,,,,,,,,,,,,,,,,,,,,,,,,,,,,,,,,,,,,,,,,,,,,,,,,,,,,posc_poss,30,15,15,-15,"[5, 2, 1, 0.5]",lin,1,1,8,3,12,66,down,0.5,3.5,3.5,30,221.65094362501986,221.65776191698387,222.1461562080076,222.1461562080076,222.21890062501188,222.21890062501188,222.21890062501188,222.71527262497693,1,,,,,,,,,,,,,,,nateheller,0,2025-09-11_15h05.09.545,tilt_staircase,2024.2.4,None,2025-09-11 15h05.27.046967 -0400,
,,,0,0,0,,,,,,,,,,,,,,,,,,0,0,0,0,222.72063166700536,,,,,,,,,,,,,,,,,,,,,,,,,,,,,,,,,,,,,,,,,,,,,,,,,,,,,,,negc_noss,30,-15,15,-15,"[5, 2, 1, 0.5]",lin,1,1,8,4,12,67,up,0.5,-0.5,-0.5,,222.71635179198347,222.72063166700536,223.21305424999446,223.21305424999446,223.28474766702857,223.28474766702857,223.28474766702857,223.5540572500322,0,,,,,,,,,,,,,,,nateheller,0,2025-09-11_15h05.09.545,tilt_staircase,2024.2.4,None,2025-09-11 15h05.27.046967 -0400,
,,,0,0,0,,,,,,,,,,,,,,,,,,0,0,0,0,223.562783707981,,,,,,,,,,,,,,,,,,,,,,,,,,,,,,,,,,,,,,,,,,,,,,,,,,,,,,,posc_negs,30,15,15,-15,"[5, 2, 1, 0.5]",lin,1,1,8,1,12,68,up,0.5,-4.5,-4.5,-30,223.55510320799658,223.562783707981,224.0563049170305,224.0563049170305,224.1308415000094,224.1308415000094,224.1308415000094,224.8533543330268,0,,,,,,,,,,,,,,,nateheller,0,2025-09-11_15h05.09.545,tilt_staircase,2024.2.4,None,2025-09-11 15h05.27.046967 -0400,
,,,0,0,0,,,,,,,,,,,,,,,,,,0,0,0,0,224.8626759169856,,,,,,,,,,,,,,,,,,,,,,,,,,,,,,,,,,,,,,,,,,,,,,,,,,,,,,,posc_noss,30,15,15,-15,"[5, 2, 1, 0.5]",lin,1,1,8,5,12,69,down,0.5,-0.5,-0.5,,224.8544019170222,224.8626759169856,225.34741858299822,225.34741858299822,225.4196790829883,225.4196790829883,225.43075225001667,226.30547533300705,1,,,,,,,,,,,,,,,nateheller,0,2025-09-11_15h05.09.545,tilt_staircase,2024.2.4,None,2025-09-11 15h05.27.046967 -0400,
,,,0,0,0,,,,,,,,,,,,,,,,,,0,0,0,0,226.31395016697934,,,,,,,,,,,,,,,,,,,,,,,,,,,,,,,,,,,,,,,,,,,,,,,,,,,,,,,negc_poss,30,-15,15,-15,"[5, 2, 1, 0.5]",lin,1,1,8,2,12,70,down,0.5,2.5,2.5,30,226.30653724999866,226.31395016697934,226.80516500002705,226.80516500002705,226.88063654198777,226.88063654198777,226.88063654198777,227.59106254199287,0,,,,,,,,,,,,,,,nateheller,0,2025-09-11_15h05.09.545,tilt_staircase,2024.2.4,None,2025-09-11 15h05.27.046967 -0400,
,,,0,0,0,,,,,,,,,,,,,,,,,,0,0,0,0,227.5967858749791,,,,,,,,,,,,,,,,,,,,,,,,,,,,,,,,,,,,,,,,,,,,,,,,,,,,,,,negc_negs,30,-15,15,-15,"[5, 2, 1, 0.5]",lin,1,1,8,0,12,71,down,0.5,-4.0,-4.0,-30,227.5921640000306,227.5967858749791,228.08882641699165,228.08882641699165,228.16406179202022,228.16406179202022,228.16406179202022,228.58325691701612,1,,,,,,,,,,,,,,,nateheller,0,2025-09-11_15h05.09.545,tilt_staircase,2024.2.4,None,2025-09-11 15h05.27.046967 -0400,
,,,0,0,0,,,,,,,,,,,,,,,,,,0,0,0,0,228.59180545801064,,,,,,,,,,,,,,,,,,,,,,,,,,,,,,,,,,,,,,,,,,,,,,,,,,,,,,,posc_poss,30,15,15,-15,"[5, 2, 1, 0.5]",lin,1,1,8,3,13,72,down,0.5,3.0,3.0,30,228.58447549998527,228.59180545801064,229.0794396250276,229.0794396250276,229.15371958300238,229.15371958300238,229.15371958300238,230.0665235830238,0,,,,,,,,,,,,,,,nateheller,0,2025-09-11_15h05.09.545,tilt_staircase,2024.2.4,None,2025-09-11 15h05.27.046967 -0400,
,,,0,0,0,,,,,,,,,,,,,,,,,,0,0,0,0,230.0748400419834,,,,,,,,,,,,,,,,,,,,,,,,,,,,,,,,,,,,,,,,,,,,,,,,,,,,,,,negc_negs,30,-15,15,-15,"[5, 2, 1, 0.5]",lin,1,1,8,0,13,73,down,0.5,-4.5,-4.5,-30,230.06772749999072,230.0748400419834,230.5640865000314,230.5640865000314,230.63708000001498,230.63708000001498,230.63708000001498,231.38259883300634,0,,,,,,,,,,,,,,,nateheller,0,2025-09-11_15h05.09.545,tilt_staircase,2024.2.4,None,2025-09-11 15h05.27.046967 -0400,
,,,0,0,0,,,,,,,,,,,,,,,,,,0,0,0,0,231.3909792919876,,,,,,,,,,,,,,,,,,,,,,,,,,,,,,,,,,,,,,,,,,,,,,,,,,,,,,,posc_negs,30,15,15,-15,"[5, 2, 1, 0.5]",lin,1,1,8,1,13,74,up,0.5,-4.0,-4.0,-30,231.38374762499006,231.3909792919876,231.8795057500247,231.8795057500247,231.95402929198463,231.95402929198463,231.95402929198463,232.86688479199074,1,,,,,,,,,,,,,,,nateheller,0,2025-09-11_15h05.09.545,tilt_staircase,2024.2.4,None,2025-09-11 15h05.27.046967 -0400,
,,,0,0,0,,,,,,,,,,,,,,,,,,0,0,0,0,232.87583470798563,,,,,,,,,,,,,,,,,,,,,,,,,,,,,,,,,,,,,,,,,,,,,,,,,,,,,,,posc_noss,30,15,15,-15,"[5, 2, 1, 0.5]",lin,1,1,8,5,13,75,down,0.5,-1.0,-1.0,,232.8685487920302,232.87583470798563,233.36275600001682,233.36275600001682,233.43626966699958,233.43626966699958,233.43626966699958,234.715965875017,0,,,,,,,,,,,,,,,nateheller,0,2025-09-11_15h05.09.545,tilt_staircase,2024.2.4,None,2025-09-11 15h05.27.046967 -0400,
,,,0,0,0,,,,,,,,,,,,,,,,,,0,0,0,0,234.7244083749829,,,,,,,,,,,,,,,,,,,,,,,,,,,,,,,,,,,,,,,,,,,,,,,,,,,,,,,negc_noss,30,-15,15,-15,"[5, 2, 1, 0.5]",lin,1,1,8,4,13,76,up,0.5,0.0,0.0,,234.71721208299277,234.7244083749829,235.2127919170307,235.2127919170307,235.28704470797675,235.28704470797675,235.28704470797675,236.6497507080203,0,,,,,,,,,,,,,,,nateheller,0,2025-09-11_15h05.09.545,tilt_staircase,2024.2.4,None,2025-09-11 15h05.27.046967 -0400,
,,,0,0,0,,,,,,,,,,,,,,,,,,0,0,0,0,236.6570894169854,,,,,,,,,,,,,,,,,,,,,,,,,,,,,,,,,,,,,,,,,,,,,,,,,,,,,,,negc_poss,30,-15,15,-15,"[5, 2, 1, 0.5]",lin,1,1,8,2,13,77,up,0.5,3.0,3.0,30,236.65100916702067,236.6570894169854,237.14606925001135,237.14606925001135,237.2197243749979,237.2197243749979,237.2197243749979,237.8367561249761,1,,,,,,,,,,,,,,,nateheller,0,2025-09-11_15h05.09.545,tilt_staircase,2024.2.4,None,2025-09-11 15h05.27.046967 -0400,
,,,0,0,0,,,,,,,,,,,,,,,,,,0,0,0,0,237.8460905830143,,,,,,,,,,,,,,,,,,,,,,,,,,,,,,,,,,,,,,,,,,,,,,,,,,,,,,,negc_poss,30,-15,15,-15,"[5, 2, 1, 0.5]",lin,1,1,8,2,14,78,down,0.5,2.5,2.5,30,237.83782912499737,237.8460905830143,238.33770062500844,238.33770062500844,238.41330000001471,238.41330000001471,238.41330000001471,239.14870891702594,1,,,,,,,,,,,,,,,nateheller,0,2025-09-11_15h05.09.545,tilt_staircase,2024.2.4,None,2025-09-11 15h05.27.046967 -0400,
,,,0,0,0,,,,,,,,,,,,,,,,,,0,0,0,0,239.1572129999986,,,,,,,,,,,,,,,,,,,,,,,,,,,,,,,,,,,,,,,,,,,,,,,,,,,,,,,negc_negs,30,-15,15,-15,"[5, 2, 1, 0.5]",lin,1,1,8,0,14,79,up,0.5,-4.0,-4.0,-30,239.14979162497912,239.1572129999986,239.64602204202674,239.64602204202674,239.7202481669956,239.7202481669956,239.7202481669956,240.51620629202807,0,,,,,,,,,,,,,,,nateheller,0,2025-09-11_15h05.09.545,tilt_staircase,2024.2.4,None,2025-09-11 15h05.27.046967 -0400,
,,,0,0,0,,,,,,,,,,,,,,,,,,0,0,0,0,240.5246481670183,,,,,,,,,,,,,,,,,,,,,,,,,,,,,,,,,,,,,,,,,,,,,,,,,,,,,,,posc_negs,30,15,15,-15,"[5, 2, 1, 0.5]",lin,1,1,8,1,14,80,down,0.5,-4.5,-4.5,-30,240.51746554201236,240.5246481670183,241.01270970801124,241.01270970801124,241.08694979199208,241.08694979199208,241.08694979199208,241.81637941702502,0,,,,,,,,,,,,,,,nateheller,0,2025-09-11_15h05.09.545,tilt_staircase,2024.2.4,None,2025-09-11 15h05.27.046967 -0400,
,,,0,0,0,,,,,,,,,,,,,,,,,,0,0,0,0,241.82577866700012,,,,,,,,,,,,,,,,,,,,,,,,,,,,,,,,,,,,,,,,,,,,,,,,,,,,,,,posc_noss,30,15,15,-15,"[5, 2, 1, 0.5]",lin,1,1,8,5,14,81,up,0.5,-0.5,-0.5,,241.81840808299603,241.82577866700012,242.31268816703232,242.31268816703232,242.38679095800035,242.38679095800035,242.38679095800035,243.0491176249925,0,,,,,,,,,,,,,,,nateheller,0,2025-09-11_15h05.09.545,tilt_staircase,2024.2.4,None,2025-09-11 15h05.27.046967 -0400,
,,,0,0,0,,,,,,,,,,,,,,,,,,0,0,0,0,243.0573560000048,,,,,,,,,,,,,,,,,,,,,,,,,,,,,,,,,,,,,,,,,,,,,,,,,,,,,,,posc_poss,30,15,15,-15,"[5, 2, 1, 0.5]",lin,1,1,8,3,14,82,up,0.5,3.5,3.5,30,243.05021712498274,243.0573560000048,243.54751770797884,243.54751770797884,243.62051170802442,243.62051170802442,243.62051170802442,244.39976791699883,1,,,,,,,,,,,,,,,nateheller,0,2025-09-11_15h05.09.545,tilt_staircase,2024.2.4,None,2025-09-11 15h05.27.046967 -0400,
,,,0,0,0,,,,,,,,,,,,,,,,,,0,0,0,0,244.40815291699255,,,,,,,,,,,,,,,,,,,,,,,,,,,,,,,,,,,,,,,,,,,,,,,,,,,,,,,negc_noss,30,-15,15,-15,"[5, 2, 1, 0.5]",lin,1,1,8,4,14,83,up,0.5,0.5,0.5,,244.4010938749998,244.40815291699255,244.89605020801537,244.89605020801537,244.96991500002332,244.96991500002332,244.96991500002332,245.6245603330317,1,,,,,,,,,,,,,,,nateheller,0,2025-09-11_15h05.09.545,tilt_staircase,2024.2.4,None,2025-09-11 15h05.27.046967 -0400,
,,,0,0,0,,,,,,,,,,,,,,,,,,0,0,0,0,245.63027208298445,,,,,,,,,,,,,,,,,,,,,,,,,,,,,,,,,,,,,,,,,,,,,,,,,,,,,,,negc_negs,30,-15,15,-15,"[5, 2, 1, 0.5]",lin,1,1,8,0,15,84,up,0.5,-3.5,-3.5,-30,245.62568233301863,245.63027208298445,246.1224047500291,246.1224047500291,246.19747733301483,246.19747733301483,246.19747733301483,246.7658445420093,0,,,,,,,,,,,,,,,nateheller,0,2025-09-11_15h05.09.545,tilt_staircase,2024.2.4,None,2025-09-11 15h05.27.046967 -0400,
,,,0,0,0,,,,,,,,,,,,,,,,,,0,0,0,0,246.7729049579939,,,,,,,,,,,,,,,,,,,,,,,,,,,,,,,,,,,,,,,,,,,,,,,,,,,,,,,negc_noss,30,-15,15,-15,"[5, 2, 1, 0.5]",lin,1,1,8,4,15,85,down,0.5,0.0,0.0,,246.76687624998158,246.7729049579939,247.26280416699592,247.26280416699592,247.33411845797673,247.33411845797673,247.33411845797673,248.07565908302786,1,,,,,,,,,,,,,,,nateheller,0,2025-09-11_15h05.09.545,tilt_staircase,2024.2.4,None,2025-09-11 15h05.27.046967 -0400,
,,,0,0,0,,,,,,,,,,,,,,,,,,0,0,0,0,248.09660170797724,,,,,,,,,,,,,,,,,,,,,,,,,,,,,,,,,,,,,,,,,,,,,,,,,,,,,,,negc_poss,30,-15,15,-15,"[5, 2, 1, 0.5]",lin,1,1,8,2,15,86,down,0.5,2.0,2.0,30,248.0767094999901,248.09660170797724,248.57101716700708,248.57101716700708,248.64786187501159,248.64786187501159,248.65340270800516,249.4220965830027,1,,,,,,,,,,,,,,,nateheller,0,2025-09-11_15h05.09.545,tilt_staircase,2024.2.4,None,2025-09-11 15h05.27.046967 -0400,
,,,0,0,0,,,,,,,,,,,,,,,,,,0,0,0,0,249.44718808302423,,,,,,,,,,,,,,,,,,,,,,,,,,,,,,,,,,,,,,,,,,,,,,,,,,,,,,,posc_poss,30,15,15,-15,"[5, 2, 1, 0.5]",lin,1,1,8,3,15,87,down,0.5,3.0,3.0,30,249.42322433297522,249.44718808302423,249.92281183297746,249.92281183297746,250.0014818329946,250.0014818329946,249.9963128750096,250.88268862501718,0,,,,,,,,,,,,,,,nateheller,0,2025-09-11_15h05.09.545,tilt_staircase,2024.2.4,None,2025-09-11 15h05.27.046967 -0400,
,,,0,0,0,,,,,,,,,,,,,,,,,,0,0,0,0,250.89138429198647,,,,,,,,,,,,,,,,,,,,,,,,,,,,,,,,,,,,,,,,,,,,,,,,,,,,,,,posc_noss,30,15,15,-15,"[5, 2, 1, 0.5]",lin,1,1,8,5,15,88,up,0.5,0.0,0.0,,250.88411787501536,250.89138429198647,251.3794610829791,251.3794610829791,251.45323083299445,251.45323083299445,251.45323083299445,252.46592566702748,0,,,,,,,,,,,,,,,nateheller,0,2025-09-11_15h05.09.545,tilt_staircase,2024.2.4,None,2025-09-11 15h05.27.046967 -0400,
,,,0,0,0,,,,,,,,,,,,,,,,,,0,0,0,0,252.47421945800306,,,,,,,,,,,,,,,,,,,,,,,,,,,,,,,,,,,,,,,,,,,,,,,,,,,,,,,posc_negs,30,15,15,-15,"[5, 2, 1, 0.5]",lin,1,1,8,1,15,89,up,0.5,-4.0,-4.0,-30,252.46704825002234,252.47421945800306,252.96270816697506,252.96270816697506,253.03682370798197,253.03682370798197,253.03682370798197,253.68603920802707,1,,,,,,,,,,,,,,,nateheller,0,2025-09-11_15h05.09.545,tilt_staircase,2024.2.4,None,2025-09-11 15h05.27.046967 -0400,
,,,0,0,0,,,,,,,,,,,,,,,,,,0,0,0,0,253.69630983303068,,,,,,,,,,,,,,,,,,,,,,,,,,,,,,,,,,,,,,,,,,,,,,,,,,,,,,,posc_noss,30,15,15,-15,"[5, 2, 1, 0.5]",lin,1,1,8,5,16,90,up,0.5,0.5,0.5,,253.68675983301364,253.69630983303068,254.1856583749759,254.1856583749759,254.2629908330273,254.2629908330273,254.2629908330273,254.86488591699162,1,,,,,,,,,,,,,,,nateheller,0,2025-09-11_15h05.09.545,tilt_staircase,2024.2.4,None,2025-09-11 15h05.27.046967 -0400,
,,,0,0,0,,,,,,,,,,,,,,,,,,0,0,0,0,254.87169412500225,,,,,,,,,,,,,,,,,,,,,,,,,,,,,,,,,,,,,,,,,,,,,,,,,,,,,,,negc_noss,30,-15,15,-15,"[5, 2, 1, 0.5]",lin,1,1,8,4,16,91,down,0.5,-0.5,-0.5,,254.8657480420079,254.87169412500225,255.3543632500223,255.3543632500223,255.43095295800595,255.43095295800595,255.4357853329857,256.08137716702186,0,,,,,,,,,,,,,,,nateheller,0,2025-09-11_15h05.09.545,tilt_staircase,2024.2.4,None,2025-09-11 15h05.27.046967 -0400,
,,,0,0,0,,,,,,,,,,,,,,,,,,0,0,0,0,256.08876383298775,,,,,,,,,,,,,,,,,,,,,,,,,,,,,,,,,,,,,,,,,,,,,,,,,,,,,,,posc_negs,30,15,15,-15,"[5, 2, 1, 0.5]",lin,1,1,8,1,16,92,down,0.5,-4.5,-4.5,-30,256.0822915000026,256.08876383298775,256.5805803749827,256.5805803749827,256.6526617499767,256.6526617499767,256.6526617499767,257.4581507080002,0,,,,,,,,,,,,,,,nateheller,0,2025-09-11_15h05.09.545,tilt_staircase,2024.2.4,None,2025-09-11 15h05.27.046967 -0400,
,,,0,0,0,,,,,,,,,,,,,,,,,,0,0,0,0,257.46385908301454,,,,,,,,,,,,,,,,,,,,,,,,,,,,,,,,,,,,,,,,,,,,,,,,,,,,,,,posc_poss,30,15,15,-15,"[5, 2, 1, 0.5]",lin,1,1,8,3,16,93,up,0.5,3.5,3.5,30,257.459314458014,257.46385908301454,257.9534988750238,257.9534988750238,258.0294393749791,258.0294393749791,258.03497450001305,258.7994988330174,1,,,,,,,,,,,,,,,nateheller,0,2025-09-11_15h05.09.545,tilt_staircase,2024.2.4,None,2025-09-11 15h05.27.046967 -0400,
,,,0,0,0,,,,,,,,,,,,,,,,,,0,0,0,0,258.80730633297935,,,,,,,,,,,,,,,,,,,,,,,,,,,,,,,,,,,,,,,,,,,,,,,,,,,,,,,negc_negs,30,-15,15,-15,"[5, 2, 1, 0.5]",lin,1,1,8,0,16,94,up,0.5,-3.0,-3.0,-30,258.8006322919973,258.80730633297935,259.2960336250253,259.2960336250253,259.37091200001305,259.37091200001305,259.37091200001305,260.0664047499886,1,,,,,,,,,,,,,,,nateheller,0,2025-09-11_15h05.09.545,tilt_staircase,2024.2.4,None,2025-09-11 15h05.27.046967 -0400,
,,,0,0,0,,,,,,,,,,,,,,,,,,0,0,0,0,260.0760078750318,,,,,,,,,,,,,,,,,,,,,,,,,,,,,,,,,,,,,,,,,,,,,,,,,,,,,,,negc_poss,30,-15,15,-15,"[5, 2, 1, 0.5]",lin,1,1,8,2,16,95,down,0.5,1.5,1.5,30,260.0686222080258,260.0760078750318,260.56331341702025,260.56331341702025,260.63668862503255,260.63668862503255,260.63668862503255,261.16638862498803,0,,,,,,,,,,,,,,,nateheller,0,2025-09-11_15h05.09.545,tilt_staircase,2024.2.4,None,2025-09-11 15h05.27.046967 -0400,
,,,0,0,0,,,,,,,,,,,,,,,,,,0,0,0,0,261.17548808298307,,,,,,,,,,,,,,,,,,,,,,,,,,,,,,,,,,,,,,,,,,,,,,,,,,,,,,,negc_poss,30,-15,15,-15,"[5, 2, 1, 0.5]",lin,1,1,8,2,17,96,up,0.5,2.0,2.0,30,261.1682667080313,261.17548808298307,261.66267400002107,261.66267400002107,261.7373101669946,261.7373101669946,261.7373101669946,262.4027664579917,0,,,,,,,,,,,,,,,nateheller,0,2025-09-11_15h05.09.545,tilt_staircase,2024.2.4,None,2025-09-11 15h05.27.046967 -0400,
,,,0,0,0,,,,,,,,,,,,,,,,,,0,0,0,0,262.41290562500944,,,,,,,,,,,,,,,,,,,,,,,,,,,,,,,,,,,,,,,,,,,,,,,,,,,,,,,negc_negs,30,-15,15,-15,"[5, 2, 1, 0.5]",lin,1,1,8,0,17,97,down,0.5,-3.5,-3.5,-30,262.4037145000184,262.41290562500944,262.89612220798153,262.89612220798153,262.9699583330075,262.9699583330075,262.9807998749893,263.8993310829974,0,,,,,,,,,,,,,,,nateheller,0,2025-09-11_15h05.09.545,tilt_staircase,2024.2.4,None,2025-09-11 15h05.27.046967 -0400,
,,,0,0,0,,,,,,,,,,,,,,,,,,0,0,0,0,263.9077202079934,,,,,,,,,,,,,,,,,,,,,,,,,,,,,,,,,,,,,,,,,,,,,,,,,,,,,,,posc_noss,30,15,15,-15,"[5, 2, 1, 0.5]",lin,1,1,8,5,17,98,down,0.5,0.0,0.0,,263.9005751669756,263.9077202079934,264.3962340829894,264.3962340829894,264.47007283300627,264.47007283300627,264.47007283300627,265.6550229170243,1,,,,,,,,,,,,,,,nateheller,0,2025-09-11_15h05.09.545,tilt_staircase,2024.2.4,None,2025-09-11 15h05.27.046967 -0400,
,,,0,0,0,,,,,,,,,,,,,,,,,,0,0,0,0,265.6631877080072,,,,,,,,,,,,,,,,,,,,,,,,,,,,,,,,,,,,,,,,,,,,,,,,,,,,,,,posc_negs,30,15,15,-15,"[5, 2, 1, 0.5]",lin,1,1,8,1,17,99,up,0.5,-4.0,-4.0,-30,265.6560845830245,265.6631877080072,266.15523504198063,266.15523504198063,266.2307577499887,266.2307577499887,266.2307577499887,266.8345826669829,0,,,,,,,,,,,,,,,nateheller,0,2025-09-11_15h05.09.545,tilt_staircase,2024.2.4,None,2025-09-11 15h05.27.046967 -0400,
,,,0,0,0,,,,,,,,,,,,,,,,,,0,0,0,0,266.8429050830309,,,,,,,,,,,,,,,,,,,,,,,,,,,,,,,,,,,,,,,,,,,,,,,,,,,,,,,posc_poss,30,15,15,-15,"[5, 2, 1, 0.5]",lin,1,1,8,3,17,100,down,0.5,3.0,3.0,30,266.8358158330084,266.8429050830309,267.32931012503104,267.32931012503104,267.4011440000031,267.4011440000031,267.4131807499798,267.9657322919811,1,,,,,,,,,,,,,,,nateheller,0,2025-09-11_15h05.09.545,tilt_staircase,2024.2.4,None,2025-09-11 15h05.27.046967 -0400,
,,,0,0,0,,,,,,,,,,,,,,,,,,0,0,0,0,267.9744003749802,,,,,,,,,,,,,,,,,,,,,,,,,,,,,,,,,,,,,,,,,,,,,,,,,,,,,,,negc_noss,30,-15,15,-15,"[5, 2, 1, 0.5]",lin,1,1,8,4,17,101,up,0.5,0.0,0.0,,267.966915166995,267.9744003749802,268.4626325829886,268.4626325829886,268.5373550829827,268.5373550829827,268.5373550829827,269.25510054198094,1,,,,,,,,,,,,,,,nateheller,0,2025-09-11_15h05.09.545,tilt_staircase,2024.2.4,None,2025-09-11 15h05.27.046967 -0400,
,,,0,0,0,,,,,,,,,,,,,,,,,,0,0,0,0,269.2636902080267,,,,,,,,,,,,,,,,,,,,,,,,,,,,,,,,,,,,,,,,,,,,,,,,,,,,,,,negc_negs,30,-15,15,-15,"[5, 2, 1, 0.5]",lin,1,1,8,0,18,102,up,0.5,-3.0,-3.0,-30,269.2562008330133,269.2636902080267,269.75584741699276,269.75584741699276,269.8302798329969,269.8302798329969,269.8302798329969,270.6053935000091,1,,,,,,,,,,,,,,,nateheller,0,2025-09-11_15h05.09.545,tilt_staircase,2024.2.4,None,2025-09-11 15h05.27.046967 -0400,
,,,0,0,0,,,,,,,,,,,,,,,,,,0,0,0,0,270.61383929202566,,,,,,,,,,,,,,,,,,,,,,,,,,,,,,,,,,,,,,,,,,,,,,,,,,,,,,,posc_poss,30,15,15,-15,"[5, 2, 1, 0.5]",lin,1,1,8,3,18,103,down,0.5,2.5,2.5,30,270.60652137501165,270.61383929202566,271.1061198330135,271.1061198330135,271.18040054198354,271.18040054198354,271.18040054198354,272.04923649999546,1,,,,,,,,,,,,,,,nateheller,0,2025-09-11_15h05.09.545,tilt_staircase,2024.2.4,None,2025-09-11 15h05.27.046967 -0400,
,,,0,0,0,,,,,,,,,,,,,,,,,,0,0,0,0,272.0571814579889,,,,,,,,,,,,,,,,,,,,,,,,,,,,,,,,,,,,,,,,,,,,,,,,,,,,,,,negc_noss,30,-15,15,-15,"[5, 2, 1, 0.5]",lin,1,1,8,4,18,104,down,0.5,-0.5,-0.5,,272.05033587501384,272.0571814579889,272.54647683299845,272.54647683299845,272.61908495798707,272.61908495798707,272.61908495798707,273.2249272079789,0,,,,,,,,,,,,,,,nateheller,0,2025-09-11_15h05.09.545,tilt_staircase,2024.2.4,None,2025-09-11 15h05.27.046967 -0400,
,,,0,0,0,,,,,,,,,,,,,,,,,,0,0,0,0,273.2304507920053,,,,,,,,,,,,,,,,,,,,,,,,,,,,,,,,,,,,,,,,,,,,,,,,,,,,,,,posc_noss,30,15,15,-15,"[5, 2, 1, 0.5]",lin,1,1,8,5,18,105,down,0.5,-0.5,-0.5,,273.2259887920227,273.2304507920053,273.72028100001626,273.72028100001626,273.7974264579825,273.7974264579825,273.8032294579898,274.45509537501493,0,,,,,,,,,,,,,,,nateheller,0,2025-09-11_15h05.09.545,tilt_staircase,2024.2.4,None,2025-09-11 15h05.27.046967 -0400,
,,,0,0,0,,,,,,,,,,,,,,,,,,0,0,0,0,274.4631914580241,,,,,,,,,,,,,,,,,,,,,,,,,,,,,,,,,,,,,,,,,,,,,,,,,,,,,,,negc_poss,30,-15,15,-15,"[5, 2, 1, 0.5]",lin,1,1,8,2,18,106,up,0.5,2.5,2.5,30,274.4562378330156,274.4631914580241,274.955952792021,274.955952792021,275.0307297920226,275.0307297920226,275.0307297920226,275.62481941701844,1,,,,,,,,,,,,,,,nateheller,0,2025-09-11_15h05.09.545,tilt_staircase,2024.2.4,None,2025-09-11 15h05.27.046967 -0400,
,,,0,0,0,,,,,,,,,,,,,,,,,,0,0,0,0,275.6304627080099,,,,,,,,,,,,,,,,,,,,,,,,,,,,,,,,,,,,,,,,,,,,,,,,,,,,,,,posc_negs,30,15,15,-15,"[5, 2, 1, 0.5]",lin,1,1,8,1,18,107,up,0.5,-3.5,-3.5,-30,275.62600137502886,275.6304627080099,276.1226183330291,276.1226183330291,276.1974176670192,276.1974176670192,276.20335420803167,276.6563237920054,0,,,,,,,,,,,,,,,nateheller,0,2025-09-11_15h05.09.545,tilt_staircase,2024.2.4,None,2025-09-11 15h05.27.046967 -0400,
,,,0,0,0,,,,,,,,,,,,,,,,,,0,0,0,0,276.6800182919833,,,,,,,,,,,,,,,,,,,,,,,,,,,,,,,,,,,,,,,,,,,,,,,,,,,,,,,posc_noss,30,15,15,-15,"[5, 2, 1, 0.5]",lin,1,1,8,5,19,108,up,0.5,0.0,0.0,,276.6572122920188,276.6800182919833,277.15556787501555,277.15556787501555,277.23072720802156,277.23072720802156,277.23072720802156,277.79979604203254,1,,,,,,,,,,,,,,,nateheller,0,2025-09-11_15h05.09.545,tilt_staircase,2024.2.4,None,2025-09-11 15h05.27.046967 -0400,
,,,0,0,0,,,,,,,,,,,,,,,,,,0,0,0,0,277.8090720420005,,,,,,,,,,,,,,,,,,,,,,,,,,,,,,,,,,,,,,,,,,,,,,,,,,,,,,,posc_negs,30,15,15,-15,"[5, 2, 1, 0.5]",lin,1,1,8,1,19,109,up,0.5,-3.0,-3.0,-30,277.80174808303127,277.8090720420005,278.2959816249786,278.2959816249786,278.3698650000151,278.3698650000151,278.3698650000151,278.8881068750052,0,,,,,,,,,,,,,,,nateheller,0,2025-09-11_15h05.09.545,tilt_staircase,2024.2.4,None,2025-09-11 15h05.27.046967 -0400,
,,,0,0,0,,,,,,,,,,,,,,,,,,0,0,0,0,278.8991809579893,,,,,,,,,,,,,,,,,,,,,,,,,,,,,,,,,,,,,,,,,,,,,,,,,,,,,,,negc_negs,30,-15,15,-15,"[5, 2, 1, 0.5]",lin,1,1,8,0,19,110,down,0.5,-3.5,-3.5,-30,278.8915662500076,278.8991809579893,279.3894696669886,279.3894696669886,279.46401345799677,279.46401345799677,279.46401345799677,280.08307208301267,0,,,,,,,,,,,,,,,nateheller,0,2025-09-11_15h05.09.545,tilt_staircase,2024.2.4,None,2025-09-11 15h05.27.046967 -0400,
,,,0,0,0,,,,,,,,,,,,,,,,,,0,0,0,0,280.0921565000317,,,,,,,,,,,,,,,,,,,,,,,,,,,,,,,,,,,,,,,,,,,,,,,,,,,,,,,posc_poss,30,15,15,-15,"[5, 2, 1, 0.5]",lin,1,1,8,3,19,111,down,0.5,2.0,2.0,30,280.0848976250272,280.0921565000317,280.57935833302327,280.57935833302327,280.6535918749869,280.6535918749869,280.6535918749869,281.2990937079885,0,,,,,,,,,,,,,,,nateheller,0,2025-09-11_15h05.09.545,tilt_staircase,2024.2.4,None,2025-09-11 15h05.27.046967 -0400,
,,,0,0,0,,,,,,,,,,,,,,,,,,0,0,0,0,281.3073062499752,,,,,,,,,,,,,,,,,,,,,,,,,,,,,,,,,,,,,,,,,,,,,,,,,,,,,,,negc_noss,30,-15,15,-15,"[5, 2, 1, 0.5]",lin,1,1,8,4,19,112,up,0.5,0.0,0.0,,281.3001933330088,281.3073062499752,281.79593766701873,281.79593766701873,281.8698840420111,281.8698840420111,281.8698840420111,282.45489350002026,1,,,,,,,,,,,,,,,nateheller,0,2025-09-11_15h05.09.545,tilt_staircase,2024.2.4,None,2025-09-11 15h05.27.046967 -0400,
,,,0,0,0,,,,,,,,,,,,,,,,,,0,0,0,0,282.46333641698584,,,,,,,,,,,,,,,,,,,,,,,,,,,,,,,,,,,,,,,,,,,,,,,,,,,,,,,negc_poss,30,-15,15,-15,"[5, 2, 1, 0.5]",lin,1,1,8,2,19,113,down,0.5,2.0,2.0,30,282.4558648749953,282.46333641698584,282.9535235000076,282.9535235000076,283.02945141698,283.02945141698,283.02945141698,283.5651706249919,0,,,,,,,,,,,,,,,nateheller,0,2025-09-11_15h05.09.545,tilt_staircase,2024.2.4,None,2025-09-11 15h05.27.046967 -0400,
,,,0,0,0,,,,,,,,,,,,,,,,,,0,0,0,0,283.5705201670062,,,,,,,,,,,,,,,,,,,,,,,,,,,,,,,,,,,,,,,,,,,,,,,,,,,,,,,negc_poss,30,-15,15,-15,"[5, 2, 1, 0.5]",lin,1,1,8,2,20,114,up,0.5,2.5,2.5,30,283.56618945801165,283.5705201670062,284.06257775000995,284.06257775000995,284.1370047919918,284.1370047919918,284.1370047919918,284.7228958749911,1,,,,,,,,,,,,,,,nateheller,0,2025-09-11_15h05.09.545,tilt_staircase,2024.2.4,None,2025-09-11 15h05.27.046967 -0400,
,,,0,0,0,,,,,,,,,,,,,,,,,,0,0,0,0,284.72922766697593,,,,,,,,,,,,,,,,,,,,,,,,,,,,,,,,,,,,,,,,,,,,,,,,,,,,,,,negc_noss,30,-15,15,-15,"[5, 2, 1, 0.5]",lin,1,1,8,4,20,115,down,0.5,-0.5,-0.5,,284.7239287919947,284.72922766697593,285.22260387497954,285.22260387497954,285.29738875001203,285.29738875001203,285.29738875001203,285.94946945802076,0,,,,,,,,,,,,,,,nateheller,0,2025-09-11_15h05.09.545,tilt_staircase,2024.2.4,None,2025-09-11 15h05.27.046967 -0400,
,,,0,0,0,,,,,,,,,,,,,,,,,,0,0,0,0,285.95765479200054,,,,,,,,,,,,,,,,,,,,,,,,,,,,,,,,,,,,,,,,,,,,,,,,,,,,,,,negc_negs,30,-15,15,-15,"[5, 2, 1, 0.5]",lin,1,1,8,0,20,116,up,0.5,-3.0,-3.0,-30,285.9506396250217,285.95765479200054,286.44667637499515,286.44667637499515,286.519979832985,286.519979832985,286.519979832985,287.09907504200237,1,,,,,,,,,,,,,,,nateheller,0,2025-09-11_15h05.09.545,tilt_staircase,2024.2.4,None,2025-09-11 15h05.27.046967 -0400,
,,,0,0,0,,,,,,,,,,,,,,,,,,0,0,0,0,287.10637329198653,,,,,,,,,,,,,,,,,,,,,,,,,,,,,,,,,,,,,,,,,,,,,,,,,,,,,,,posc_poss,30,15,15,-15,"[5, 2, 1, 0.5]",lin,1,1,8,3,20,117,up,0.5,2.5,2.5,30,287.1005694579799,287.10637329198653,287.5972727080225,287.5972727080225,287.66959237499395,287.66959237499395,287.66959237499395,288.51600429200334,0,,,,,,,,,,,,,,,nateheller,0,2025-09-11_15h05.09.545,tilt_staircase,2024.2.4,None,2025-09-11 15h05.27.046967 -0400,
,,,0,0,0,,,,,,,,,,,,,,,,,,0,0,0,0,288.5244984580204,,,,,,,,,,,,,,,,,,,,,,,,,,,,,,,,,,,,,,,,,,,,,,,,,,,,,,,posc_noss,30,15,15,-15,"[5, 2, 1, 0.5]",lin,1,1,8,5,20,118,down,0.5,-0.5,-0.5,,288.51717554201605,288.5244984580204,289.01257233298384,289.01257233298384,289.0867989999824,289.0867989999824,289.0867989999824,289.60529937501997,1,,,,,,,,,,,,,,,nateheller,0,2025-09-11_15h05.09.545,tilt_staircase,2024.2.4,None,2025-09-11 15h05.27.046967 -0400,
,,,0,0,0,,,,,,,,,,,,,,,,,,0,0,0,0,289.6137615420157,,,,,,,,,,,,,,,,,,,,,,,,,,,,,,,,,,,,,,,,,,,,,,,,,,,,,,,posc_negs,30,15,15,-15,"[5, 2, 1, 0.5]",lin,1,1,8,1,20,119,up,0.5,-2.5,-2.5,-30,289.6063834580127,289.6137615420157,290.1063428330235,290.1063428330235,290.18077687500045,290.18077687500045,290.18077687500045,290.8665217499947,0,,,,,,,,,,,,,,,nateheller,0,2025-09-11_15h05.09.545,tilt_staircase,2024.2.4,None,2025-09-11 15h05.27.046967 -0400,
,,,0,0,0,,,,,,,,,,,,,,,,,,0,0,0,0,290.8751292920206,,,,,,,,,,,,,,,,,,,,,,,,,,,,,,,,,,,,,,,,,,,,,,,,,,,,,,,posc_noss,30,15,15,-15,"[5, 2, 1, 0.5]",lin,1,1,8,5,21,120,down,0.5,-1.0,-1.0,,290.8679770830204,290.8751292920206,291.3626449580188,291.3626449580188,291.4365823750268,291.4365823750268,291.4365823750268,292.0495205420302,0,,,,,,,,,,,,,,,nateheller,0,2025-09-11_15h05.09.545,tilt_staircase,2024.2.4,None,2025-09-11 15h05.27.046967 -0400,
,,,0,0,0,,,,,,,,,,,,,,,,,,0,0,0,0,292.0584488750319,,,,,,,,,,,,,,,,,,,,,,,,,,,,,,,,,,,,,,,,,,,,,,,,,,,,,,,negc_noss,30,-15,15,-15,"[5, 2, 1, 0.5]",lin,1,1,8,4,21,121,up,0.5,0.0,0.0,,292.0513648749911,292.0584488750319,292.5459191669943,292.5459191669943,292.6200662080082,292.6200662080082,292.6200662080082,293.1583620830206,1,,,,,,,,,,,,,,,nateheller,0,2025-09-11_15h05.09.545,tilt_staircase,2024.2.4,None,2025-09-11 15h05.27.046967 -0400,
,,,0,0,0,,,,,,,,,,,,,,,,,,0,0,0,0,293.16391512501286,,,,,,,,,,,,,,,,,,,,,,,,,,,,,,,,,,,,,,,,,,,,,,,,,,,,,,,posc_negs,30,15,15,-15,"[5, 2, 1, 0.5]",lin,1,1,8,1,21,122,up,0.5,-2.0,-2.0,-30,293.15937408298487,293.16391512501286,293.65598141698865,293.65598141698865,293.7306629170198,293.7306629170198,293.7369988330174,294.5328280000249,1,,,,,,,,,,,,,,,nateheller,0,2025-09-11_15h05.09.545,tilt_staircase,2024.2.4,None,2025-09-11 15h05.27.046967 -0400,
,,,0,0,0,,,,,,,,,,,,,,,,,,0,0,0,0,294.54219037498115,,,,,,,,,,,,,,,,,,,,,,,,,,,,,,,,,,,,,,,,,,,,,,,,,,,,,,,posc_poss,30,15,15,-15,"[5, 2, 1, 0.5]",lin,1,1,8,3,21,123,up,0.5,3.0,3.0,30,294.53482025000267,294.54219037498115,295.02956833300414,295.02956833300414,295.1034298330196,295.1034298330196,295.1034298330196,295.5205470829969,0,,,,,,,,,,,,,,,nateheller,0,2025-09-11_15h05.09.545,tilt_staircase,2024.2.4,None,2025-09-11 15h05.27.046967 -0400,
,,,0,0,0,,,,,,,,,,,,,,,,,,0,0,0,0,295.529358083033,,,,,,,,,,,,,,,,,,,,,,,,,,,,,,,,,,,,,,,,,,,,,,,,,,,,,,,negc_negs,30,-15,15,-15,"[5, 2, 1, 0.5]",lin,1,1,8,0,21,124,down,0.5,-3.5,-3.5,-30,295.5214676670148,295.529358083033,296.0221890420071,296.0221890420071,296.09733308298746,296.09733308298746,296.09733308298746,296.51487929199357,1,,,,,,,,,,,,,,,nateheller,0,2025-09-11_15h05.09.545,tilt_staircase,2024.2.4,None,2025-09-11 15h05.27.046967 -0400,
,,,0,0,0,,,,,,,,,,,,,,,,,,0,0,0,0,296.520512957999,,,,,,,,,,,,,,,,,,,,,,,,,,,,,,,,,,,,,,,,,,,,,,,,,,,,,,,negc_poss,30,-15,15,-15,"[5, 2, 1, 0.5]",lin,1,1,8,2,21,125,down,0.5,2.0,2.0,30,296.5161436669878,296.520512957999,297.0125509169884,297.0125509169884,297.0862850419944,297.0862850419944,297.0862850419944,297.52173533302266,0,,,,,,,,,,,,,,,nateheller,0,2025-09-11_15h05.09.545,tilt_staircase,2024.2.4,None,2025-09-11 15h05.27.046967 -0400,
,,,0,0,0,,,,,,,,,,,,,,,,,,0,0,0,0,297.53017133299727,,,,,,,,,,,,,,,,,,,,,,,,,,,,,,,,,,,,,,,,,,,,,,,,,,,,,,,posc_noss,30,15,15,-15,"[5, 2, 1, 0.5]",lin,1,1,8,5,22,126,up,0.5,-0.5,-0.5,,297.5228362919879,297.53017133299727,298.02252658299403,298.02252658299403,298.10326441697543,298.10326441697543,298.10326441697543,298.3830538750044,1,,,,,,,,,,,,,,,nateheller,0,2025-09-11_15h05.09.545,tilt_staircase,2024.2.4,None,2025-09-11 15h05.27.046967 -0400,
,,,0,0,0,,,,,,,,,,,,,,,,,,0,0,0,0,298.3915374579956,,,,,,,,,,,,,,,,,,,,,,,,,,,,,,,,,,,,,,,,,,,,,,,,,,,,,,,posc_negs,30,15,15,-15,"[5, 2, 1, 0.5]",lin,1,1,8,1,22,127,down,0.5,-2.5,-2.5,-30,298.38424912502524,298.3915374579956,298.87950249999994,298.87950249999994,298.9518004580168,298.9518004580168,298.9518004580168,299.6660819170065,0,,,,,,,,,,,,,,,nateheller,0,2025-09-11_15h05.09.545,tilt_staircase,2024.2.4,None,2025-09-11 15h05.27.046967 -0400,
,,,0,0,0,,,,,,,,,,,,,,,,,,0,0,0,0,299.67519295797683,,,,,,,,,,,,,,,,,,,,,,,,,,,,,,,,,,,,,,,,,,,,,,,,,,,,,,,negc_poss,30,-15,15,-15,"[5, 2, 1, 0.5]",lin,1,1,8,2,22,128,up,0.5,2.5,2.5,30,299.6676547920215,299.67519295797683,300.16261175001273,300.16261175001273,300.23682491702493,300.23682491702493,300.23682491702493,300.875227542012,1,,,,,,,,,,,,,,,nateheller,0,2025-09-11_15h05.09.545,tilt_staircase,2024.2.4,None,2025-09-11 15h05.27.046967 -0400,
,,,0,0,0,,,,,,,,,,,,,,,,,,0,0,0,0,300.8970076669939,,,,,,,,,,,,,,,,,,,,,,,,,,,,,,,,,,,,,,,,,,,,,,,,,,,,,,,negc_noss,30,-15,15,-15,"[5, 2, 1, 0.5]",lin,1,1,8,4,22,129,down,0.5,-0.5,-0.5,,300.87622891698265,300.8970076669939,301.3726679580286,301.3726679580286,301.447103124985,301.447103124985,301.4532860000036,302.0051583329914,0,,,,,,,,,,,,,,,nateheller,0,2025-09-11_15h05.09.545,tilt_staircase,2024.2.4,None,2025-09-11 15h05.27.046967 -0400,
,,,0,0,0,,,,,,,,,,,,,,,,,,0,0,0,0,302.01348304201383,,,,,,,,,,,,,,,,,,,,,,,,,,,,,,,,,,,,,,,,,,,,,,,,,,,,,,,posc_poss,30,15,15,-15,"[5, 2, 1, 0.5]",lin,1,1,8,3,22,130,up,0.5,3.5,3.5,30,302.00632633297937,302.01348304201383,302.5054259999888,302.5054259999888,302.58036841702415,302.58036841702415,302.58036841702415,303.105145916983,1,,,,,,,,,,,,,,,nateheller,0,2025-09-11_15h05.09.545,tilt_staircase,2024.2.4,None,2025-09-11 15h05.27.046967 -0400,
,,,0,0,0,,,,,,,,,,,,,,,,,,0,0,0,0,303.11357662500814,,,,,,,,,,,,,,,,,,,,,,,,,,,,,,,,,,,,,,,,,,,,,,,,,,,,,,,negc_negs,30,-15,15,-15,"[5, 2, 1, 0.5]",lin,1,1,8,0,22,131,down,0.5,-4.0,-4.0,-30,303.10622850002255,303.11357662500814,303.60653295798693,303.60653295798693,303.68065616698004,303.68065616698004,303.68065616698004,304.33295445801923,1,,,,,,,,,,,,,,,nateheller,0,2025-09-11_15h05.09.545,tilt_staircase,2024.2.4,None,2025-09-11 15h05.27.046967 -0400,
,,,0,0,0,,,,,,,,,,,,,,,,,,0,0,0,0,304.3420445829979,,,,,,,,,,,,,,,,,,,,,,,,,,,,,,,,,,,,,,,,,,,,,,,,,,,,,,,posc_poss,30,15,15,-15,"[5, 2, 1, 0.5]",lin,1,1,8,3,23,132,down,0.5,3.0,3.0,30,304.33482150000054,304.3420445829979,304.8297842920292,304.8297842920292,304.9025353330071,304.9025353330071,304.9025353330071,305.56575000000885,1,,,,,,,,,,,,,,,nateheller,0,2025-09-11_15h05.09.545,tilt_staircase,2024.2.4,None,2025-09-11 15h05.27.046967 -0400,
,,,0,0,0,,,,,,,,,,,,,,,,,,0,0,0,0,305.5738852500217,,,,,,,,,,,,,,,,,,,,,,,,,,,,,,,,,,,,,,,,,,,,,,,,,,,,,,,posc_noss,30,15,15,-15,"[5, 2, 1, 0.5]",lin,1,1,8,5,23,133,down,0.5,-1.0,-1.0,,305.5668527079979,305.5738852500217,306.0625645000255,306.0625645000255,306.13663008302683,306.13663008302683,306.13663008302683,306.638259917032,0,,,,,,,,,,,,,,,nateheller,0,2025-09-11_15h05.09.545,tilt_staircase,2024.2.4,None,2025-09-11 15h05.27.046967 -0400,
,,,0,0,0,,,,,,,,,,,,,,,,,,0,0,0,0,306.64644966699416,,,,,,,,,,,,,,,,,,,,,,,,,,,,,,,,,,,,,,,,,,,,,,,,,,,,,,,negc_noss,30,-15,15,-15,"[5, 2, 1, 0.5]",lin,1,1,8,4,23,134,up,0.5,0.0,0.0,,306.6393303750083,306.64644966699416,307.1369077920099,307.1369077920099,307.2129489170038,307.2129489170038,307.2129489170038,308.24146595800994,1,,,,,,,,,,,,,,,nateheller,0,2025-09-11_15h05.09.545,tilt_staircase,2024.2.4,None,2025-09-11 15h05.27.046967 -0400,
,,,0,0,0,,,,,,,,,,,,,,,,,,0,0,0,0,308.2470405829954,,,,,,,,,,,,,,,,,,,,,,,,,,,,,,,,,,,,,,,,,,,,,,,,,,,,,,,negc_negs,30,-15,15,-15,"[5, 2, 1, 0.5]",lin,1,1,8,0,23,135,down,0.5,-4.5,-4.5,-30,308.2424699999974,308.2470405829954,308.73886083299294,308.73886083299294,308.81414754199795,308.81414754199795,308.81414754199795,311.66632533300435,0,,,,,,,,,,,,,,,nateheller,0,2025-09-11_15h05.09.545,tilt_staircase,2024.2.4,None,2025-09-11 15h05.27.046967 -0400,
,,,0,0,0,,,,,,,,,,,,,,,,,,0,0,0,0,311.6797926669824,,,,,,,,,,,,,,,,,,,,,,,,,,,,,,,,,,,,,,,,,,,,,,,,,,,,,,,negc_poss,30,-15,15,-15,"[5, 2, 1, 0.5]",lin,1,1,8,2,23,136,down,0.5,2.0,2.0,30,311.6668129580212,311.6797926669824,312.16267200000584,312.16267200000584,312.2367474579951,312.2367474579951,312.2367474579951,313.7160340420087,1,,,,,,,,,,,,,,,nateheller,0,2025-09-11_15h05.09.545,tilt_staircase,2024.2.4,None,2025-09-11 15h05.27.046967 -0400,
,,,0,0,0,,,,,,,,,,,,,,,,,,0,0,0,0,313.7244647499756,,,,,,,,,,,,,,,,,,,,,,,,,,,,,,,,,,,,,,,,,,,,,,,,,,,,,,,posc_negs,30,15,15,-15,"[5, 2, 1, 0.5]",lin,1,1,8,1,23,137,up,0.5,-2.0,-2.0,-30,313.71725383301964,313.7244647499756,314.2125588330091,314.2125588330091,314.2870728750131,314.2870728750131,314.2870728750131,315.6994792500045,0,,,,,,,,,,,,,,,nateheller,0,2025-09-11_15h05.09.545,tilt_staircase,2024.2.4,None,2025-09-11 15h05.27.046967 -0400,
,,,0,0,0,,,,,,,,,,,,,,,,,,0,0,0,0,315.7080436249962,,,,,,,,,,,,,,,,,,,,,,,,,,,,,,,,,,,,,,,,,,,,,,,,,,,,,,,posc_noss,30,15,15,-15,"[5, 2, 1, 0.5]",lin,1,1,8,5,24,138,up,0.5,-0.5,-0.5,,315.7009444999858,315.7080436249962,316.19586350000463,316.19586350000463,316.2701627499773,316.2701627499773,316.2701627499773,316.7421814579866,0,,,,,,,,,,,,,,,nateheller,0,2025-09-11_15h05.09.545,tilt_staircase,2024.2.4,None,2025-09-11 15h05.27.046967 -0400,
,,,0,0,0,,,,,,,,,,,,,,,,,,0,0,0,0,316.76357595802983,,,,,,,,,,,,,,,,,,,,,,,,,,,,,,,,,,,,,,,,,,,,,,,,,,,,,,,negc_negs,30,-15,15,-15,"[5, 2, 1, 0.5]",lin,1,1,8,0,24,139,up,0.5,-4.0,-4.0,-30,316.743186082982,316.76357595802983,317.2394372919807,317.2394372919807,317.31395041698124,317.31395041698124,317.31968141702237,318.3136616250267,0,,,,,,,,,,,,,,,nateheller,0,2025-09-11_15h05.09.545,tilt_staircase,2024.2.4,None,2025-09-11 15h05.27.046967 -0400,
,,,0,0,0,,,,,,,,,,,,,,,,,,0,0,0,0,318.3191644169856,,,,,,,,,,,,,,,,,,,,,,,,,,,,,,,,,,,,,,,,,,,,,,,,,,,,,,,posc_negs,30,15,15,-15,"[5, 2, 1, 0.5]",lin,1,1,8,1,24,140,up,0.5,-1.5,-1.5,-30,318.31467237498146,318.3191644169856,318.80494520801585,318.80494520801585,318.8804375830223,318.8804375830223,318.8865098329843,319.33194016700145,1,,,,,,,,,,,,,,,nateheller,0,2025-09-11_15h05.09.545,tilt_staircase,2024.2.4,None,2025-09-11 15h05.27.046967 -0400,
,,,0,0,0,,,,,,,,,,,,,,,,,,0,0,0,0,319.34007487498457,,,,,,,,,,,,,,,,,,,,,,,,,,,,,,,,,,,,,,,,,,,,,,,,,,,,,,,negc_poss,30,-15,15,-15,"[5, 2, 1, 0.5]",lin,1,1,8,2,24,141,down,0.5,1.5,1.5,30,319.3329945420264,319.34007487498457,319.82919308298733,319.82919308298733,319.90312237502076,319.90312237502076,319.90312237502076,320.824393582996,0,,,,,,,,,,,,,,,nateheller,0,2025-09-11_15h05.09.545,tilt_staircase,2024.2.4,None,2025-09-11 15h05.27.046967 -0400,
,,,0,0,0,,,,,,,,,,,,,,,,,,0,0,0,0,320.8301395829767,,,,,,,,,,,,,,,,,,,,,,,,,,,,,,,,,,,,,,,,,,,,,,,,,,,,,,,posc_poss,30,15,15,-15,"[5, 2, 1, 0.5]",lin,1,1,8,3,24,142,down,0.5,2.5,2.5,30,320.82550433301367,320.8301395829767,321.3226791250054,321.3226791250054,321.396693082992,321.396693082992,321.396693082992,322.33840416697785,1,,,,,,,,,,,,,,,nateheller,0,2025-09-11_15h05.09.545,tilt_staircase,2024.2.4,None,2025-09-11 15h05.27.046967 -0400,
,,,0,0,0,,,,,,,,,,,,,,,,,,0,0,0,0,322.3469559579971,,,,,,,,,,,,,,,,,,,,,,,,,,,,,,,,,,,,,,,,,,,,,,,,,,,,,,,negc_noss,30,-15,15,-15,"[5, 2, 1, 0.5]",lin,1,1,8,4,24,143,down,0.5,-0.5,-0.5,,322.3395804170286,322.3469559579971,322.83945012500044,322.83945012500044,322.91364495799644,322.91364495799644,322.91364495799644,323.91577658301685,0,,,,,,,,,,,,,,,nateheller,0,2025-09-11_15h05.09.545,tilt_staircase,2024.2.4,None,2025-09-11 15h05.27.046967 -0400,
,,,0,0,0,,,,,,,,,,,,,,,,,,0,0,0,0,323.924120916985,,,,,,,,,,,,,,,,,,,,,,,,,,,,,,,,,,,,,,,,,,,,,,,,,,,,,,,posc_negs,30,15,15,-15,"[5, 2, 1, 0.5]",lin,1,1,8,1,25,144,down,0.5,-2.0,-2.0,-30,323.9169447500026,323.924120916985,324.4127790000057,324.4127790000057,324.48665495798923,324.48665495798923,324.48665495798923,325.454838250007,1,,,,,,,,,,,,,,,nateheller,0,2025-09-11_15h05.09.545,tilt_staircase,2024.2.4,None,2025-09-11 15h05.27.046967 -0400,
,,,0,0,0,,,,,,,,,,,,,,,,,,0,0,0,0,325.4635903330054,,,,,,,,,,,,,,,,,,,,,,,,,,,,,,,,,,,,,,,,,,,,,,,,,,,,,,,negc_negs,30,-15,15,-15,"[5, 2, 1, 0.5]",lin,1,1,8,0,25,145,up,0.5,-3.5,-3.5,-30,325.4562909579836,325.4635903330054,325.956139750022,325.956139750022,326.0305392500013,326.0305392500013,326.0305392500013,326.7864942079759,0,,,,,,,,,,,,,,,nateheller,0,2025-09-11_15h05.09.545,tilt_staircase,2024.2.4,None,2025-09-11 15h05.27.046967 -0400,
,,,0,0,0,,,,,,,,,,,,,,,,,,0,0,0,0,326.7958024169784,,,,,,,,,,,,,,,,,,,,,,,,,,,,,,,,,,,,,,,,,,,,,,,,,,,,,,,negc_poss,30,-15,15,-15,"[5, 2, 1, 0.5]",lin,1,1,8,2,25,146,up,0.5,2.0,2.0,30,326.7875527080032,326.7958024169784,327.2792173749767,327.2792173749767,327.35793754202314,327.35793754202314,327.35793754202314,328.22167308302596,0,,,,,,,,,,,,,,,nateheller,0,2025-09-11_15h05.09.545,tilt_staircase,2024.2.4,None,2025-09-11 15h05.27.046967 -0400,
,,,0,0,0,,,,,,,,,,,,,,,,,,0,0,0,0,328.23011504200986,,,,,,,,,,,,,,,,,,,,,,,,,,,,,,,,,,,,,,,,,,,,,,,,,,,,,,,posc_poss,30,15,15,-15,"[5, 2, 1, 0.5]",lin,1,1,8,3,25,147,down,0.5,2.0,2.0,30,328.2227304580156,328.23011504200986,328.72231387498323,328.72231387498323,328.79682504199445,328.79682504199445,328.79682504199445,329.42403624998406,1,,,,,,,,,,,,,,,nateheller,0,2025-09-11_15h05.09.545,tilt_staircase,2024.2.4,None,2025-09-11 15h05.27.046967 -0400,
,,,0,0,0,,,,,,,,,,,,,,,,,,0,0,0,0,329.42943545797607,,,,,,,,,,,,,,,,,,,,,,,,,,,,,,,,,,,,,,,,,,,,,,,,,,,,,,,negc_noss,30,-15,15,-15,"[5, 2, 1, 0.5]",lin,1,1,8,4,25,148,up,0.5,0.0,0.0,,329.4249172080308,329.42943545797607,329.9222222500248,329.9222222500248,329.99727641697973,329.99727641697973,329.99727641697973,330.73251654201886,0,,,,,,,,,,,,,,,nateheller,0,2025-09-11_15h05.09.545,tilt_staircase,2024.2.4,None,2025-09-11 15h05.27.046967 -0400,
,,,0,0,0,,,,,,,,,,,,,,,,,,0,0,0,0,330.7405949580134,,,,,,,,,,,,,,,,,,,,,,,,,,,,,,,,,,,,,,,,,,,,,,,,,,,,,,,posc_noss,30,15,15,-15,"[5, 2, 1, 0.5]",lin,1,1,8,5,25,149,up,0.5,0.0,0.0,,330.733618667,330.7405949580134,331.22946325002704,331.22946325002704,331.3033131249831,331.3033131249831,331.3033131249831,331.9716559170047,1,,,,,,,,,,,,,,,nateheller,0,2025-09-11_15h05.09.545,tilt_staircase,2024.2.4,None,2025-09-11 15h05.27.046967 -0400,
,,,1,0,1,,,,,,,,,,,,,,,,,,1,0,1,0,356.0791934169829,,,,,,,,,,,,,,,,,,,,,,,,,,,,,,,,,,,,,,,,,,,,,,,,,,,,,,,posc_poss,30,15,15,-15,"[5, 2, 1, 0.5]",lin,1,1,8,3,1,0,start,5,15,15,30,356.0703907079878,356.0791934169829,356.5458868750138,356.5458868750138,356.61995820800075,356.61995820800075,356.61995820800075,357.6492326669977,0,331.9718731670291,331.98270133300684,331.98270133300684,356.04925145802554,space,24.0566739999922,None,,,,,,,,nateheller,0,2025-09-11_15h05.09.545,tilt_staircase,2024.2.4,None,2025-09-11 15h05.27.046967 -0400,
,,,1,0,1,,,,,,,,,,,,,,,,,,1,0,1,0,357.6576626250171,,,,,,,,,,,,,,,,,,,,,,,,,,,,,,,,,,,,,,,,,,,,,,,,,,,,,,,negc_poss,30,-15,15,-15,"[5, 2, 1, 0.5]",lin,1,1,8,2,1,1,start,5,-15,-15,30,357.65049500000896,357.6576626250171,358.14586216700263,358.14586216700263,358.21956858300837,358.21956858300837,358.21956858300837,358.68270175001817,0,,,,,,,,,,,,,,,nateheller,0,2025-09-11_15h05.09.545,tilt_staircase,2024.2.4,None,2025-09-11 15h05.27.046967 -0400,
,,,1,0,1,,,,,,,,,,,,,,,,,,1,0,1,0,358.69166033301735,,,,,,,,,,,,,,,,,,,,,,,,,,,,,,,,,,,,,,,,,,,,,,,,,,,,,,,posc_negs,30,15,15,-15,"[5, 2, 1, 0.5]",lin,1,1,8,1,1,2,start,5,15,15,-30,358.6844697499764,358.69166033301735,359.17914391699014,359.17914391699014,359.25374141702196,359.25374141702196,359.25374141702196,359.5744550829986,1,,,,,,,,,,,,,,,nateheller,0,2025-09-11_15h05.09.545,tilt_staircase,2024.2.4,None,2025-09-11 15h05.27.046967 -0400,
,,,1,0,1,,,,,,,,,,,,,,,,,,1,0,1,0,359.5800734999939,,,,,,,,,,,,,,,,,,,,,,,,,,,,,,,,,,,,,,,,,,,,,,,,,,,,,,,negc_negs,30,-15,15,-15,"[5, 2, 1, 0.5]",lin,1,1,8,0,1,3,start,5,-15,-15,-30,359.5754952499992,359.5800734999939,360.07282995799324,360.07282995799324,360.1468734170194,360.1468734170194,360.1468734170194,360.5158451250172,0,,,,,,,,,,,,,,,nateheller,0,2025-09-11_15h05.09.545,tilt_staircase,2024.2.4,None,2025-09-11 15h05.27.046967 -0400,
,,,1,0,1,,,,,,,,,,,,,,,,,,1,0,1,0,360.52401883300627,,,,,,,,,,,,,,,,,,,,,,,,,,,,,,,,,,,,,,,,,,,,,,,,,,,,,,,negc_noss,30,-15,15,-15,"[5, 2, 1, 0.5]",lin,1,1,8,4,1,4,start,5,-15,-15,,360.5169636249775,360.52401883300627,361.01244370802306,361.01244370802306,361.0872122499859,361.0872122499859,361.0872122499859,361.53257350000786,0,,,,,,,,,,,,,,,nateheller,0,2025-09-11_15h05.09.545,tilt_staircase,2024.2.4,None,2025-09-11 15h05.27.046967 -0400,
,,,1,0,1,,,,,,,,,,,,,,,,,,1,0,1,0,361.54179350001505,,,,,,,,,,,,,,,,,,,,,,,,,,,,,,,,,,,,,,,,,,,,,,,,,,,,,,,posc_noss,30,15,15,-15,"[5, 2, 1, 0.5]",lin,1,1,8,5,1,5,start,5,15,15,,361.5343732080073,361.54179350001505,362.0290695420117,362.0290695420117,362.1039149580174,362.1039149580174,362.1039149580174,362.4825648749829,1,,,,,,,,,,,,,,,nateheller,0,2025-09-11_15h05.09.545,tilt_staircase,2024.2.4,None,2025-09-11 15h05.27.046967 -0400,
,,,1,0,1,,,,,,,,,,,,,,,,,,1,0,1,0,362.4907497499953,,,,,,,,,,,,,,,,,,,,,,,,,,,,,,,,,,,,,,,,,,,,,,,,,,,,,,,posc_negs,30,15,15,-15,"[5, 2, 1, 0.5]",lin,1,1,8,1,2,6,down,5,10,10,-30,362.4837370000314,362.4907497499953,362.97911558300257,362.97911558300257,363.05355625000084,363.05355625000084,363.05355625000084,363.549354583025,1,,,,,,,,,,,,,,,nateheller,0,2025-09-11_15h05.09.545,tilt_staircase,2024.2.4,None,2025-09-11 15h05.27.046967 -0400,
,,,1,0,1,,,,,,,,,,,,,,,,,,1,0,1,0,363.55794162501115,,,,,,,,,,,,,,,,,,,,,,,,,,,,,,,,,,,,,,,,,,,,,,,,,,,,,,,posc_noss,30,15,15,-15,"[5, 2, 1, 0.5]",lin,1,1,8,5,2,7,down,5,10,10,,363.5507399580092,363.55794162501115,364.0457895420259,364.0457895420259,364.12009912502253,364.12009912502253,364.12009912502253,364.5050354169798,1,,,,,,,,,,,,,,,nateheller,0,2025-09-11_15h05.09.545,tilt_staircase,2024.2.4,None,2025-09-11 15h05.27.046967 -0400,
,,,1,0,1,,,,,,,,,,,,,,,,,,1,0,1,0,364.51241629198194,,,,,,,,,,,,,,,,,,,,,,,,,,,,,,,,,,,,,,,,,,,,,,,,,,,,,,,negc_noss,30,-15,15,-15,"[5, 2, 1, 0.5]",lin,1,1,8,4,2,8,up,5,-10,-10,,364.50586633302737,364.51241629198194,365.0053752500098,365.0053752500098,365.0801375830197,365.0801375830197,365.0801375830197,365.4241865419899,0,,,,,,,,,,,,,,,nateheller,0,2025-09-11_15h05.09.545,tilt_staircase,2024.2.4,None,2025-09-11 15h05.27.046967 -0400,
,,,1,0,1,,,,,,,,,,,,,,,,,,1,0,1,0,365.4300754169817,,,,,,,,,,,,,,,,,,,,,,,,,,,,,,,,,,,,,,,,,,,,,,,,,,,,,,,negc_negs,30,-15,15,-15,"[5, 2, 1, 0.5]",lin,1,1,8,0,2,9,up,5,-10,-10,-30,365.4252777079819,365.4300754169817,365.9231082079932,365.9231082079932,365.99724304198753,365.99724304198753,365.99724304198753,366.44905108300736,0,,,,,,,,,,,,,,,nateheller,0,2025-09-11_15h05.09.545,tilt_staircase,2024.2.4,None,2025-09-11 15h05.27.046967 -0400,
,,,1,0,1,,,,,,,,,,,,,,,,,,1,0,1,0,366.4554488750291,,,,,,,,,,,,,,,,,,,,,,,,,,,,,,,,,,,,,,,,,,,,,,,,,,,,,,,posc_poss,30,15,15,-15,"[5, 2, 1, 0.5]",lin,1,1,8,3,2,10,up,5,15,15,30,366.44999083300354,366.4554488750291,366.94599683297565,366.94599683297565,367.01826650003204,367.01826650003204,367.01826650003204,367.4045089170104,1,,,,,,,,,,,,,,,nateheller,0,2025-09-11_15h05.09.545,tilt_staircase,2024.2.4,None,2025-09-11 15h05.27.046967 -0400,
,,,1,0,1,,,,,,,,,,,,,,,,,,1,0,1,0,367.41302512498805,,,,,,,,,,,,,,,,,,,,,,,,,,,,,,,,,,,,,,,,,,,,,,,,,,,,,,,negc_poss,30,-15,15,-15,"[5, 2, 1, 0.5]",lin,1,1,8,2,2,11,up,5,-10,-10,30,367.4056458330015,367.41302512498805,367.9057854170096,367.9057854170096,367.9806626670179,367.9806626670179,367.9806626670179,368.3551552920253,0,,,,,,,,,,,,,,,nateheller,0,2025-09-11_15h05.09.545,tilt_staircase,2024.2.4,None,2025-09-11 15h05.27.046967 -0400,
,,,1,0,1,,,,,,,,,,,,,,,,,,1,0,1,0,368.36331787501695,,,,,,,,,,,,,,,,,,,,,,,,,,,,,,,,,,,,,,,,,,,,,,,,,,,,,,,negc_negs,30,-15,15,-15,"[5, 2, 1, 0.5]",lin,1,1,8,0,3,12,up,5,-5,-5,-30,368.356207875011,368.36331787501695,368.8553386250278,368.8553386250278,368.9305252080085,368.9305252080085,368.9305252080085,369.5042452919879,0,,,,,,,,,,,,,,,nateheller,0,2025-09-11_15h05.09.545,tilt_staircase,2024.2.4,None,2025-09-11 15h05.27.046967 -0400,
,,,1,0,1,,,,,,,,,,,,,,,,,,1,0,1,0,369.51234591699904,,,,,,,,,,,,,,,,,,,,,,,,,,,,,,,,,,,,,,,,,,,,,,,,,,,,,,,posc_negs,30,15,15,-15,"[5, 2, 1, 0.5]",lin,1,1,8,1,3,13,down,5,5,5,-30,369.5051290420233,369.51234591699904,370.00603124999907,370.00603124999907,370.0805099999998,370.0805099999998,370.0805099999998,370.4547780419816,1,,,,,,,,,,,,,,,nateheller,0,2025-09-11_15h05.09.545,tilt_staircase,2024.2.4,None,2025-09-11 15h05.27.046967 -0400,
,,,1,0,1,,,,,,,,,,,,,,,,,,1,0,1,0,370.4631360420026,,,,,,,,,,,,,,,,,,,,,,,,,,,,,,,,,,,,,,,,,,,,,,,,,,,,,,,negc_noss,30,-15,15,-15,"[5, 2, 1, 0.5]",lin,1,1,8,4,3,14,up,5,-5,-5,,370.455829582992,370.4631360420026,370.9554909170256,370.9554909170256,371.03054587502265,371.03054587502265,371.03054587502265,371.3707890830119,0,,,,,,,,,,,,,,,nateheller,0,2025-09-11_15h05.09.545,tilt_staircase,2024.2.4,None,2025-09-11 15h05.27.046967 -0400,
,,,1,0,1,,,,,,,,,,,,,,,,,,1,0,1,0,371.3788156249793,,,,,,,,,,,,,,,,,,,,,,,,,,,,,,,,,,,,,,,,,,,,,,,,,,,,,,,posc_noss,30,15,15,-15,"[5, 2, 1, 0.5]",lin,1,1,8,5,3,15,down,5,5,5,,371.3717798750149,371.3788156249793,371.8720832919935,371.8720832919935,371.94721499999287,371.94721499999287,371.94721499999287,372.28770858299686,1,,,,,,,,,,,,,,,nateheller,0,2025-09-11_15h05.09.545,tilt_staircase,2024.2.4,None,2025-09-11 15h05.27.046967 -0400,
,,,1,0,1,,,,,,,,,,,,,,,,,,1,0,1,0,372.29550820798613,,,,,,,,,,,,,,,,,,,,,,,,,,,,,,,,,,,,,,,,,,,,,,,,,,,,,,,negc_poss,30,-15,15,-15,"[5, 2, 1, 0.5]",lin,1,1,8,2,3,16,up,5,-5,-5,30,372.28882662497927,372.29550820798613,372.7883971250267,372.7883971250267,372.8638619580306,372.8638619580306,372.8638619580306,373.2327686669887,0,,,,,,,,,,,,,,,nateheller,0,2025-09-11_15h05.09.545,tilt_staircase,2024.2.4,None,2025-09-11 15h05.27.046967 -0400,
,,,1,0,1,,,,,,,,,,,,,,,,,,1,0,1,0,373.2408719169907,,,,,,,,,,,,,,,,,,,,,,,,,,,,,,,,,,,,,,,,,,,,,,,,,,,,,,,posc_poss,30,15,15,-15,"[5, 2, 1, 0.5]",lin,1,1,8,3,3,17,down,2,13,13,30,373.2339236669941,373.2408719169907,373.72917354200035,373.72917354200035,373.8032716669841,373.8032716669841,373.8032716669841,374.3654121669824,1,,,,,,,,,,,,,,,nateheller,0,2025-09-11_15h05.09.545,tilt_staircase,2024.2.4,None,2025-09-11 15h05.27.046967 -0400,
,,,1,0,1,,,,,,,,,,,,,,,,,,1,0,1,0,374.37335487501696,,,,,,,,,,,,,,,,,,,,,,,,,,,,,,,,,,,,,,,,,,,,,,,,,,,,,,,posc_negs,30,15,15,-15,"[5, 2, 1, 0.5]",lin,1,1,8,1,4,18,down,5,0,0,-30,374.3664907080238,374.37335487501696,374.8624047500198,374.8624047500198,374.9369029169902,374.9369029169902,374.9369029169902,376.0824637080077,0,,,,,,,,,,,,,,,nateheller,0,2025-09-11_15h05.09.545,tilt_staircase,2024.2.4,None,2025-09-11 15h05.27.046967 -0400,
,,,1,0,1,,,,,,,,,,,,,,,,,,1,0,1,0,376.0910423750174,,,,,,,,,,,,,,,,,,,,,,,,,,,,,,,,,,,,,,,,,,,,,,,,,,,,,,,negc_poss,30,-15,15,-15,"[5, 2, 1, 0.5]",lin,1,1,8,2,4,19,up,5,0,0,30,376.0837919579935,376.0910423750174,376.57909487502184,376.57909487502184,376.65334729198366,376.65334729198366,376.65334729198366,377.09942670800956,0,,,,,,,,,,,,,,,nateheller,0,2025-09-11_15h05.09.545,tilt_staircase,2024.2.4,None,2025-09-11 15h05.27.046967 -0400,
,,,1,0,1,,,,,,,,,,,,,,,,,,1,0,1,0,377.10798329202225,,,,,,,,,,,,,,,,,,,,,,,,,,,,,,,,,,,,,,,,,,,,,,,,,,,,,,,posc_poss,30,15,15,-15,"[5, 2, 1, 0.5]",lin,1,1,8,3,4,20,down,2,11,11,30,377.10061479202705,377.10798329202225,377.59617995802546,377.59617995802546,377.670101583004,377.670101583004,377.670101583004,378.06602012499934,1,,,,,,,,,,,,,,,nateheller,0,2025-09-11_15h05.09.545,tilt_staircase,2024.2.4,None,2025-09-11 15h05.27.046967 -0400,
,,,1,0,1,,,,,,,,,,,,,,,,,,1,0,1,0,378.07518649997655,,,,,,,,,,,,,,,,,,,,,,,,,,,,,,,,,,,,,,,,,,,,,,,,,,,,,,,negc_negs,30,-15,15,-15,"[5, 2, 1, 0.5]",lin,1,1,8,0,4,21,up,5,0,0,-30,378.06788545800373,378.07518649997655,378.56243962497683,378.56243962497683,378.63587041699793,378.63587041699793,378.63587041699793,379.1322287080111,1,,,,,,,,,,,,,,,nateheller,0,2025-09-11_15h05.09.545,tilt_staircase,2024.2.4,None,2025-09-11 15h05.27.046967 -0400,
,,,1,0,1,,,,,,,,,,,,,,,,,,1,0,1,0,379.1407420830219,,,,,,,,,,,,,,,,,,,,,,,,,,,,,,,,,,,,,,,,,,,,,,,,,,,,,,,posc_noss,30,15,15,-15,"[5, 2, 1, 0.5]",lin,1,1,8,5,4,22,down,5,0,0,,379.1333917080192,379.1407420830219,379.6300695830141,379.6300695830141,379.7034894999815,379.7034894999815,379.7034894999815,380.33229670801666,0,,,,,,,,,,,,,,,nateheller,0,2025-09-11_15h05.09.545,tilt_staircase,2024.2.4,None,2025-09-11 15h05.27.046967 -0400,
,,,1,0,1,,,,,,,,,,,,,,,,,,1,0,1,0,380.3402126249857,,,,,,,,,,,,,,,,,,,,,,,,,,,,,,,,,,,,,,,,,,,,,,,,,,,,,,,negc_noss,30,-15,15,-15,"[5, 2, 1, 0.5]",lin,1,1,8,4,4,23,up,5,0,0,,380.33339637500467,380.3402126249857,380.82904191699345,380.82904191699345,380.9033674580278,380.9033674580278,380.9033674580278,381.4878172079916,0,,,,,,,,,,,,,,,nateheller,0,2025-09-11_15h05.09.545,tilt_staircase,2024.2.4,None,2025-09-11 15h05.27.046967 -0400,
,,,1,0,1,,,,,,,,,,,,,,,,,,1,0,1,0,381.4962483330164,,,,,,,,,,,,,,,,,,,,,,,,,,,,,,,,,,,,,,,,,,,,,,,,,,,,,,,negc_noss,30,-15,15,-15,"[5, 2, 1, 0.5]",lin,1,1,8,4,5,24,up,5,5,5,,381.48891112499405,381.4962483330164,381.9902678329963,381.9902678329963,382.06351125001675,382.06351125001675,382.06351125001675,382.4387567919912,1,,,,,,,,,,,,,,,nateheller,0,2025-09-11_15h05.09.545,tilt_staircase,2024.2.4,None,2025-09-11 15h05.27.046967 -0400,
,,,1,0,1,,,,,,,,,,,,,,,,,,1,0,1,0,382.4471147499862,,,,,,,,,,,,,,,,,,,,,,,,,,,,,,,,,,,,,,,,,,,,,,,,,,,,,,,posc_poss,30,15,15,-15,"[5, 2, 1, 0.5]",lin,1,1,8,3,5,25,down,2,9,9,30,382.43988008302404,382.4471147499862,382.9389989579795,382.9389989579795,383.0135126669775,383.0135126669775,383.0135126669775,383.53242158301873,1,,,,,,,,,,,,,,,nateheller,0,2025-09-11_15h05.09.545,tilt_staircase,2024.2.4,None,2025-09-11 15h05.27.046967 -0400,
,,,1,0,1,,,,,,,,,,,,,,,,,,1,0,1,0,383.5407684579841,,,,,,,,,,,,,,,,,,,,,,,,,,,,,,,,,,,,,,,,,,,,,,,,,,,,,,,posc_negs,30,15,15,-15,"[5, 2, 1, 0.5]",lin,1,1,8,1,5,26,up,2,2,2,-30,383.5336300000199,383.5407684579841,384.03055191697786,384.03055191697786,384.1030281250132,384.1030281250132,384.1030281250132,384.5991401670035,1,,,,,,,,,,,,,,,nateheller,0,2025-09-11_15h05.09.545,tilt_staircase,2024.2.4,None,2025-09-11 15h05.27.046967 -0400,
,,,1,0,1,,,,,,,,,,,,,,,,,,1,0,1,0,384.6073130419827,,,,,,,,,,,,,,,,,,,,,,,,,,,,,,,,,,,,,,,,,,,,,,,,,,,,,,,negc_poss,30,-15,15,-15,"[5, 2, 1, 0.5]",lin,1,1,8,2,5,27,up,5,5,5,30,384.60029366699746,384.6073130419827,385.09716083301464,385.09716083301464,385.1700543750194,385.1700543750194,385.1700543750194,385.6714004999958,1,,,,,,,,,,,,,,,nateheller,0,2025-09-11_15h05.09.545,tilt_staircase,2024.2.4,None,2025-09-11 15h05.27.046967 -0400,
,,,1,0,1,,,,,,,,,,,,,,,,,,1,0,1,0,385.67982716701226,,,,,,,,,,,,,,,,,,,,,,,,,,,,,,,,,,,,,,,,,,,,,,,,,,,,,,,posc_noss,30,15,15,-15,"[5, 2, 1, 0.5]",lin,1,1,8,5,5,28,up,2,2,2,,385.67250083299587,385.67982716701226,386.1719437080319,386.1719437080319,386.24593695800286,386.24593695800286,386.24593695800286,386.6887164579821,1,,,,,,,,,,,,,,,nateheller,0,2025-09-11_15h05.09.545,tilt_staircase,2024.2.4,None,2025-09-11 15h05.27.046967 -0400,
,,,1,0,1,,,,,,,,,,,,,,,,,,1,0,1,0,386.6969432079932,,,,,,,,,,,,,,,,,,,,,,,,,,,,,,,,,,,,,,,,,,,,,,,,,,,,,,,negc_negs,30,-15,15,-15,"[5, 2, 1, 0.5]",lin,1,1,8,0,5,29,down,2,-2,-2,-30,386.68983024999034,386.6969432079932,387.18856300000334,387.18856300000334,387.2636641670251,387.2636641670251,387.2636641670251,387.7989795830217,1,,,,,,,,,,,,,,,nateheller,0,2025-09-11_15h05.09.545,tilt_staircase,2024.2.4,None,2025-09-11 15h05.27.046967 -0400,
,,,1,0,1,,,,,,,,,,,,,,,,,,1,0,1,0,387.80814204202034,,,,,,,,,,,,,,,,,,,,,,,,,,,,,,,,,,,,,,,,,,,,,,,,,,,,,,,negc_poss,30,-15,15,-15,"[5, 2, 1, 0.5]",lin,1,1,8,2,6,30,down,2,3,3,30,387.800640499976,387.80814204202034,388.29594087501755,388.29594087501755,388.37018500000704,388.37018500000704,388.37018500000704,389.1822125830222,1,,,,,,,,,,,,,,,nateheller,0,2025-09-11_15h05.09.545,tilt_staircase,2024.2.4,None,2025-09-11 15h05.27.046967 -0400,
,,,1,0,1,,,,,,,,,,,,,,,,,,1,0,1,0,389.1913808750105,,,,,,,,,,,,,,,,,,,,,,,,,,,,,,,,,,,,,,,,,,,,,,,,,,,,,,,posc_negs,30,15,15,-15,"[5, 2, 1, 0.5]",lin,1,1,8,1,6,31,down,1,1,1,-30,389.184058999992,389.1913808750105,389.6790718330303,389.6790718330303,389.753750666976,389.753750666976,389.753750666976,390.24965670797974,1,,,,,,,,,,,,,,,nateheller,0,2025-09-11_15h05.09.545,tilt_staircase,2024.2.4,None,2025-09-11 15h05.27.046967 -0400,
,,,1,0,1,,,,,,,,,,,,,,,,,,1,0,1,0,390.25886970799183,,,,,,,,,,,,,,,,,,,,,,,,,,,,,,,,,,,,,,,,,,,,,,,,,,,,,,,negc_noss,30,-15,15,-15,"[5, 2, 1, 0.5]",lin,1,1,8,4,6,32,down,2,3,3,,390.2515102920006,390.25886970799183,390.74567333300365,390.74567333300365,390.82053487497615,390.82053487497615,390.82053487497615,391.6325194580131,1,,,,,,,,,,,,,,,nateheller,0,2025-09-11_15h05.09.545,tilt_staircase,2024.2.4,None,2025-09-11 15h05.27.046967 -0400,
,,,1,0,1,,,,,,,,,,,,,,,,,,1,0,1,0,391.64078233297914,,,,,,,,,,,,,,,,,,,,,,,,,,,,,,,,,,,,,,,,,,,,,,,,,,,,,,,posc_poss,30,15,15,-15,"[5, 2, 1, 0.5]",lin,1,1,8,3,6,33,down,2,7,7,30,391.6337116670329,391.64078233297914,392.1290029580123,392.1290029580123,392.2034037919948,392.2034037919948,392.2034037919948,392.72458874998847,1,,,,,,,,,,,,,,,nateheller,0,2025-09-11_15h05.09.545,tilt_staircase,2024.2.4,None,2025-09-11 15h05.27.046967 -0400,
,,,1,0,1,,,,,,,,,,,,,,,,,,1,0,1,0,392.73016891698353,,,,,,,,,,,,,,,,,,,,,,,,,,,,,,,,,,,,,,,,,,,,,,,,,,,,,,,posc_noss,30,15,15,-15,"[5, 2, 1, 0.5]",lin,1,1,8,5,6,34,down,1,1,1,,392.72560570802307,392.73016891698353,393.2222267499892,393.2222267499892,393.2971131670056,393.2971131670056,393.30341837502783,393.83238054200774,1,,,,,,,,,,,,,,,nateheller,0,2025-09-11_15h05.09.545,tilt_staircase,2024.2.4,None,2025-09-11 15h05.27.046967 -0400,
,,,1,0,1,,,,,,,,,,,,,,,,,,1,0,1,0,393.8403414579807,,,,,,,,,,,,,,,,,,,,,,,,,,,,,,,,,,,,,,,,,,,,,,,,,,,,,,,negc_negs,30,-15,15,-15,"[5, 2, 1, 0.5]",lin,1,1,8,0,6,35,down,2,-4,-4,-30,393.8334576250054,393.8403414579807,394.3289812080329,394.3289812080329,394.4029288329766,394.4029288329766,394.4029288329766,395.1159010420088,0,,,,,,,,,,,,,,,nateheller,0,2025-09-11_15h05.09.545,tilt_staircase,2024.2.4,None,2025-09-11 15h05.27.046967 -0400,
,,,1,0,1,,,,,,,,,,,,,,,,,,1,0,1,0,395.125125541992,,,,,,,,,,,,,,,,,,,,,,,,,,,,,,,,,,,,,,,,,,,,,,,,,,,,,,,posc_noss,30,15,15,-15,"[5, 2, 1, 0.5]",lin,1,1,8,5,7,36,down,1,0,0,,395.11759124998935,395.125125541992,395.6125604999834,395.6125604999834,395.68675566697493,395.68675566697493,395.68675566697493,396.21431283297716,1,,,,,,,,,,,,,,,nateheller,0,2025-09-11_15h05.09.545,tilt_staircase,2024.2.4,None,2025-09-11 15h05.27.046967 -0400,
,,,1,0,1,,,,,,,,,,,,,,,,,,1,0,1,0,396.22109283303143,,,,,,,,,,,,,,,,,,,,,,,,,,,,,,,,,,,,,,,,,,,,,,,,,,,,,,,negc_negs,30,-15,15,-15,"[5, 2, 1, 0.5]",lin,1,1,8,0,7,37,up,1,-3,-3,-30,396.2149861250073,396.22109283303143,396.70510891702725,396.70510891702725,396.78052725002635,396.78052725002635,396.78681662498275,397.4202352919965,1,,,,,,,,,,,,,,,nateheller,0,2025-09-11_15h05.09.545,tilt_staircase,2024.2.4,None,2025-09-11 15h05.27.046967 -0400,
,,,1,0,1,,,,,,,,,,,,,,,,,,1,0,1,0,397.42894950002665,,,,,,,,,,,,,,,,,,,,,,,,,,,,,,,,,,,,,,,,,,,,,,,,,,,,,,,posc_negs,30,15,15,-15,"[5, 2, 1, 0.5]",lin,1,1,8,1,7,38,down,1,0,0,-30,397.42130337498384,397.42894950002665,397.912346875004,397.912346875004,397.9857955829939,397.9857955829939,397.99717687501106,398.4987281250069,1,,,,,,,,,,,,,,,nateheller,0,2025-09-11_15h05.09.545,tilt_staircase,2024.2.4,None,2025-09-11 15h05.27.046967 -0400,
,,,1,0,1,,,,,,,,,,,,,,,,,,1,0,1,0,398.50622158299666,,,,,,,,,,,,,,,,,,,,,,,,,,,,,,,,,,,,,,,,,,,,,,,,,,,,,,,negc_poss,30,-15,15,-15,"[5, 2, 1, 0.5]",lin,1,1,8,2,7,39,down,2,1,1,30,398.4999279999756,398.50622158299666,398.99716550001176,398.99716550001176,399.069687124982,399.069687124982,399.069687124982,399.69943337497534,0,,,,,,,,,,,,,,,nateheller,0,2025-09-11_15h05.09.545,tilt_staircase,2024.2.4,None,2025-09-11 15h05.27.046967 -0400,
,,,1,0,1,,,,,,,,,,,,,,,,,,1,0,1,0,399.70861641701777,,,,,,,,,,,,,,,,,,,,,,,,,,,,,,,,,,,,,,,,,,,,,,,,,,,,,,,negc_noss,30,-15,15,-15,"[5, 2, 1, 0.5]",lin,1,1,8,4,7,40,down,2,1,1,,399.70143558300333,399.70861641701777,400.1956317080185,400.1956317080185,400.2705027500051,400.2705027500051,400.2705027500051,400.84112587501295,1,,,,,,,,,,,,,,,nateheller,0,2025-09-11_15h05.09.545,tilt_staircase,2024.2.4,None,2025-09-11 15h05.27.046967 -0400,
,,,1,0,1,,,,,,,,,,,,,,,,,,1,0,1,0,400.8464742079959,,,,,,,,,,,,,,,,,,,,,,,,,,,,,,,,,,,,,,,,,,,,,,,,,,,,,,,posc_poss,30,15,15,-15,"[5, 2, 1, 0.5]",lin,1,1,8,3,7,41,down,2,5,5,30,400.8420953750028,400.8464742079959,401.337505124975,401.337505124975,401.4137671670178,401.4137671670178,401.41964195802575,401.94931783300126,1,,,,,,,,,,,,,,,nateheller,0,2025-09-11_15h05.09.545,tilt_staircase,2024.2.4,None,2025-09-11 15h05.27.046967 -0400,
,,,1,0,1,,,,,,,,,,,,,,,,,,1,0,1,0,401.9577398750116,,,,,,,,,,,,,,,,,,,,,,,,,,,,,,,,,,,,,,,,,,,,,,,,,,,,,,,negc_negs,30,-15,15,-15,"[5, 2, 1, 0.5]",lin,1,1,8,0,8,42,down,0.5,-3.5,-3.5,-30,401.9505128330202,401.9577398750116,402.4456542080152,402.4456542080152,402.5196392919752,402.5196392919752,402.5196392919752,403.03751091699814,1,,,,,,,,,,,,,,,nateheller,0,2025-09-11_15h05.09.545,tilt_staircase,2024.2.4,None,2025-09-11 15h05.27.046967 -0400,
,,,1,0,1,,,,,,,,,,,,,,,,,,1,0,1,0,403.0456761249807,,,,,,,,,,,,,,,,,,,,,,,,,,,,,,,,,,,,,,,,,,,,,,,,,,,,,,,posc_poss,30,15,15,-15,"[5, 2, 1, 0.5]",lin,1,1,8,3,8,43,down,2,3,3,30,403.03830950002884,403.0456761249807,403.5357419170323,403.5357419170323,403.61257883301005,403.61257883301005,403.61257883301005,404.87459362501977,1,,,,,,,,,,,,,,,nateheller,0,2025-09-11_15h05.09.545,tilt_staircase,2024.2.4,None,2025-09-11 15h05.27.046967 -0400,
,,,1,0,1,,,,,,,,,,,,,,,,,,1,0,1,0,404.8802134580328,,,,,,,,,,,,,,,,,,,,,,,,,,,,,,,,,,,,,,,,,,,,,,,,,,,,,,,negc_poss,30,-15,15,-15,"[5, 2, 1, 0.5]",lin,1,1,8,2,8,44,up,1,2,2,30,404.875712500012,404.8802134580328,405.37236329203006,405.37236329203006,405.44704108301084,405.44704108301084,405.4528031250229,406.0153881669976,1,,,,,,,,,,,,,,,nateheller,0,2025-09-11_15h05.09.545,tilt_staircase,2024.2.4,None,2025-09-11 15h05.27.046967 -0400,
,,,1,0,1,,,,,,,,,,,,,,,,,,1,0,1,0,406.02352391701424,,,,,,,,,,,,,,,,,,,,,,,,,,,,,,,,,,,,,,,,,,,,,,,,,,,,,,,posc_negs,30,15,15,-15,"[5, 2, 1, 0.5]",lin,1,1,8,1,8,45,down,1,-1,-1,-30,406.01645054202527,406.02352391701424,406.512533082976,406.512533082976,406.58586658298736,406.58586658298736,406.58586658298736,407.1821250829962,1,,,,,,,,,,,,,,,nateheller,0,2025-09-11_15h05.09.545,tilt_staircase,2024.2.4,None,2025-09-11 15h05.27.046967 -0400,
,,,1,0,1,,,,,,,,,,,,,,,,,,1,0,1,0,407.19058749999385,,,,,,,,,,,,,,,,,,,,,,,,,,,,,,,,,,,,,,,,,,,,,,,,,,,,,,,posc_noss,30,15,15,-15,"[5, 2, 1, 0.5]",lin,1,1,8,5,8,46,down,1,-1,-1,,407.18358420801815,407.19058749999385,407.6792667499976,407.6792667499976,407.75189229199896,407.75189229199896,407.75189229199896,408.7035378750297,0,,,,,,,,,,,,,,,nateheller,0,2025-09-11_15h05.09.545,tilt_staircase,2024.2.4,None,2025-09-11 15h05.27.046967 -0400,
,,,1,0,1,,,,,,,,,,,,,,,,,,1,0,1,0,408.7122457919759,,,,,,,,,,,,,,,,,,,,,,,,,,,,,,,,,,,,,,,,,,,,,,,,,,,,,,,negc_noss,30,-15,15,-15,"[5, 2, 1, 0.5]",lin,1,1,8,4,8,47,down,2,-1,-1,,408.70457087497925,408.7122457919759,409.1955939999898,409.1955939999898,409.2684668750153,409.2684668750153,409.28042154200375,409.8363866250147,0,,,,,,,,,,,,,,,nateheller,0,2025-09-11_15h05.09.545,tilt_staircase,2024.2.4,None,2025-09-11 15h05.27.046967 -0400,
,,,1,0,1,,,,,,,,,,,,,,,,,,1,0,1,0,409.84568320802646,,,,,,,,,,,,,,,,,,,,,,,,,,,,,,,,,,,,,,,,,,,,,,,,,,,,,,,negc_noss,30,-15,15,-15,"[5, 2, 1, 0.5]",lin,1,1,8,4,9,48,up,1,0,0,,409.8374587500002,409.84568320802646,410.3290080000297,410.3290080000297,410.4025527500198,410.4025527500198,410.4138114579837,410.93240929202875,1,,,,,,,,,,,,,,,nateheller,0,2025-09-11_15h05.09.545,tilt_staircase,2024.2.4,None,2025-09-11 15h05.27.046967 -0400,
,,,1,0,1,,,,,,,,,,,,,,,,,,1,0,1,0,410.9411649170215,,,,,,,,,,,,,,,,,,,,,,,,,,,,,,,,,,,,,,,,,,,,,,,,,,,,,,,posc_negs,30,15,15,-15,"[5, 2, 1, 0.5]",lin,1,1,8,1,9,49,down,1,-2,-2,-30,410.93389204202686,410.9411649170215,411.43002770800376,411.43002770800376,411.5025944579975,411.5025944579975,411.5025944579975,412.5492137920228,0,,,,,,,,,,,,,,,nateheller,0,2025-09-11_15h05.09.545,tilt_staircase,2024.2.4,None,2025-09-11 15h05.27.046967 -0400,
,,,1,0,1,,,,,,,,,,,,,,,,,,1,0,1,0,412.55841754202265,,,,,,,,,,,,,,,,,,,,,,,,,,,,,,,,,,,,,,,,,,,,,,,,,,,,,,,negc_negs,30,-15,15,-15,"[5, 2, 1, 0.5]",lin,1,1,8,0,9,50,down,0.5,-4.0,-4.0,-30,412.5511154580163,412.55841754202265,413.04569008300314,413.04569008300314,413.1201039170264,413.1201039170264,413.1201039170264,413.68266787502216,0,,,,,,,,,,,,,,,nateheller,0,2025-09-11_15h05.09.545,tilt_staircase,2024.2.4,None,2025-09-11 15h05.27.046967 -0400,
,,,1,0,1,,,,,,,,,,,,,,,,,,1,0,1,0,413.691381792014,,,,,,,,,,,,,,,,,,,,,,,,,,,,,,,,,,,,,,,,,,,,,,,,,,,,,,,posc_noss,30,15,15,-15,"[5, 2, 1, 0.5]",lin,1,1,8,5,9,51,up,0.5,-0.5,-0.5,,413.68416512501426,413.691381792014,414.1790129169822,414.1790129169822,414.2528249170282,414.2528249170282,414.2528249170282,414.79090500000166,1,,,,,,,,,,,,,,,nateheller,0,2025-09-11_15h05.09.545,tilt_staircase,2024.2.4,None,2025-09-11 15h05.27.046967 -0400,
,,,1,0,1,,,,,,,,,,,,,,,,,,1,0,1,0,414.79661437502364,,,,,,,,,,,,,,,,,,,,,,,,,,,,,,,,,,,,,,,,,,,,,,,,,,,,,,,negc_poss,30,-15,15,-15,"[5, 2, 1, 0.5]",lin,1,1,8,2,9,52,down,0.5,1.5,1.5,30,414.79200683301315,414.79661437502364,415.2876098330016,415.2876098330016,415.36343199998373,415.36343199998373,415.36954320798395,416.0826612919918,0,,,,,,,,,,,,,,,nateheller,0,2025-09-11_15h05.09.545,tilt_staircase,2024.2.4,None,2025-09-11 15h05.27.046967 -0400,
,,,1,0,1,,,,,,,,,,,,,,,,,,1,0,1,0,416.09165170800406,,,,,,,,,,,,,,,,,,,,,,,,,,,,,,,,,,,,,,,,,,,,,,,,,,,,,,,posc_poss,30,15,15,-15,"[5, 2, 1, 0.5]",lin,1,1,8,3,9,53,down,2,1,1,30,416.08422362501733,416.09165170800406,416.5790132919792,416.5790132919792,416.653106999991,416.653106999991,416.653106999991,417.2327148329932,0,,,,,,,,,,,,,,,nateheller,0,2025-09-11_15h05.09.545,tilt_staircase,2024.2.4,None,2025-09-11 15h05.27.046967 -0400,
