center,surround,type,surr_type,surr_opacity,practice_no_time.thisRepN,practice_no_time.thisTrialN,practice_no_time.thisN,practice_no_time.thisIndex,practice_timed.thisRepN,practice_timed.thisTrialN,practice_timed.thisN,practice_timed.thisIndex,trials.thisRepN,trials.thisTrialN,trials.thisN,trials.thisIndex,thisRow.t,notes,instr.started,text_5.started,key_resp_2.started,instr.stopped,key_resp_2.keys,key_resp_2.rt,key_resp_2.duration,instr2.started,text_6.started,key_resp_6.started,instr2.stopped,key_resp_6.keys,key_resp_6.rt,key_resp_6.duration,instr3.started,text_8.started,key_resp_5.started,instr3.stopped,key_resp_5.keys,key_resp_5.rt,key_resp_5.duration,start_instr.started,text_13.started,key_resp_8.started,start_instr.stopped,key_resp_8.keys,key_resp_8.rt,key_resp_8.duration,trial.started,resp.started,surround_grating.started,center_grating.started,text_4.started,surround_grating.stopped,center_grating.stopped,trial.stopped,resp.keys,resp.rt,resp.duration,break_2.started,break_2.stopped,key_resp_10.keys,text_2.started,key_resp_10.started,key_resp_10.rt,key_resp_10.duration,end.started,text_14.started,key_resp.started,end.stopped,key_resp.keys,key_resp.rt,key_resp.duration,sub,ses,date,expName,psychopyVersion,frameRate,expStart,
,,,,,,,,,,,,,,,,,,,0.011074125002778601,0.02714666700194357,0.02714666700194357,2.4539182919979794,space,2.384680250004749,None,,,,,,,,,,,,,,,,,,,,,,,,,,,,,,,,,,,,,,,,,,,,,,,eliza,0,2025-08-25_13h52.38.631,tilt_mocs,2023.2.3,None,2025-08-25 13h52.47.998593 -0400,
,,,,,,,,,,,,,,,,,,,,,,,,,,2.4539585829988937,2.46717712499958,2.46717712499958,6.38459624999814,space,3.9130131660058396,None,,,,,,,,,,,,,,,,,,,,,,,,,,,,,,,,,,,,,,,,eliza,0,2025-08-25_13h52.38.631,tilt_mocs,2023.2.3,None,2025-08-25 13h52.47.998593 -0400,
,,,,,,,,,,,,,,,,,,,,,,,,,,,,,,,,,6.405959417003032,6.416781708001508,6.416781708001508,7.36784975000046,space,0.9476517500006594,None,,,,,,,,,,,,,,,,,,,,,,,,,,,,,,,,,eliza,0,2025-08-25_13h52.38.631,tilt_mocs,2023.2.3,None,2025-08-25 13h52.47.998593 -0400,
,,,,,,,,,,,,,,,,,,,,,,,,,,,,,,,,,,,,,,,,7.382286749998457,7.392627332999837,7.392627332999837,13.994446791999508,space,6.600103124997986,None,,,,,,,,,,,,,,,,,,,,,,,,,,eliza,0,2025-08-25_13h52.38.631,tilt_mocs,2023.2.3,None,2025-08-25 13h52.47.998593 -0400,
-5.222222222222221,-15.0,p1,negs,100,,,,,,,,,0,0,0,442,14.046269625003333,,,,,,,,,,,,,,,,,,,,,,,,,,,,,,14.039072708001186,14.046269625003333,14.570390332999523,14.570390332999523,14.577313166999375,14.648616124999535,14.648616124999535,18.3443357080032,right,4.288988166001218,None,18.34618762500031,18.34623483299947,None,,,,,,,,,,,,eliza,0,2025-08-25_13h52.38.631,tilt_mocs,2023.2.3,None,2025-08-25 13h52.47.998593 -0400,
-6.222222222222221,-15.0,m1,negs,100,,,,,,,,,0,1,1,381,18.379365875000076,,,,,,,,,,,,,,,,,,,,,,,,,,,,,,18.34727104200283,18.379365875000076,18.85559337500308,18.85559337500308,18.934171500004595,18.934171500004595,18.934171500004595,20.20120812499954,left,1.818172457999026,None,20.20159566700022,20.20163570799923,None,,,,,,,,,,,,eliza,0,2025-08-25_13h52.38.631,tilt_mocs,2023.2.3,None,2025-08-25 13h52.47.998593 -0400,
-0.1388888888888886,0.0,p3,noss,0,,,,,,,,,0,2,2,687,20.226481083002,,,,,,,,,,,,,,,,,,,,,,,,,,,,,,20.201981375001196,20.226481083002,20.704795375000685,20.704795375000685,20.784409874999255,20.784409874999255,20.784409874999255,21.411377249998623,right,1.175540208001621,None,21.41184904200054,21.411900250001054,None,,,,,,,,,,,,eliza,0,2025-08-25_13h52.38.631,tilt_mocs,2023.2.3,None,2025-08-25 13h52.47.998593 -0400,
4.694444444444445,15.0,p3,poss,100,,,,,,,,,0,3,3,262,21.421437500001048,,,,,,,,,,,,,,,,,,,,,,,,,,,,,,21.412369083001977,21.421437500001048,21.921045875002164,21.921045875002164,21.99300933300401,22.000556375001906,22.000556375001906,22.527235250003287,right,1.0999842080054805,None,22.527595708001172,35.91180775000248,space,22.53603191699949,22.53603191699949,13.374464709006133,None,,,,,,,,eliza,0,2025-08-25_13h52.38.631,tilt_mocs,2023.2.3,None,2025-08-25 13h52.47.998593 -0400,
-5.222222222222221,-15.0,p1,negs,100,,,,,,,,,0,4,4,473,35.92603958299878,,,,,,,,,,,,,,,,,,,,,,,,,,,,,,35.91326675000164,35.92603958299878,36.422049792003236,36.422049792003236,36.50120491700363,36.50120491700363,36.50120491700363,37.767993458001,left,1.8373390409979038,None,37.76835800000117,37.76839870800177,None,,,,,,,,,,,,eliza,0,2025-08-25_13h52.38.631,tilt_mocs,2023.2.3,None,2025-08-25 13h52.47.998593 -0400,
-6.722222222222221,-15.0,m2,negs,100,,,,,,,,,0,5,5,329,37.79330670800118,,,,,,,,,,,,,,,,,,,,,,,,,,,,,,37.76875741700496,37.79330670800118,38.27207379200263,38.27207379200263,38.351174791998346,38.351174791998346,38.351174791998346,38.98492233300203,left,1.1850466670002788,None,38.985354249998636,38.9854015000019,None,,,,,,,,,,,,eliza,0,2025-08-25_13h52.38.631,tilt_mocs,2023.2.3,None,2025-08-25 13h52.47.998593 -0400,
-1.3611111111111114,0.0,PSE,noss,0,,,,,,,,,0,6,6,625,38.99554133300262,,,,,,,,,,,,,,,,,,,,,,,,,,,,,,38.98583608300396,38.99554133300262,39.487684208004794,39.487684208004794,39.56690187500499,39.56690187500499,39.56690187500499,40.351728667003044,right,1.3547469590048422,None,40.35215404200426,40.352195125000435,None,,,,,,,,,,,,eliza,0,2025-08-25_13h52.38.631,tilt_mocs,2023.2.3,None,2025-08-25 13h52.47.998593 -0400,
3.6944444444444446,15.0,p1,poss,100,,,,,,,,,0,7,7,164,40.37660337499983,,,,,,,,,,,,,,,,,,,,,,,,,,,,,,40.35255275000236,40.37660337499983,40.855006792000495,40.855006792000495,40.93351862500276,40.93351862500276,40.93351862500276,41.77817204200255,right,1.4001537500007544,None,41.778603667000425,41.77865029199893,None,,,,,,,,,,,,eliza,0,2025-08-25_13h52.38.631,tilt_mocs,2023.2.3,None,2025-08-25 13h52.47.998593 -0400,
2.1944444444444446,15.0,m2,poss,100,,,,,,,,,0,8,8,63,41.78783941700385,,,,,,,,,,,,,,,,,,,,,,,,,,,,,,41.77907158299786,41.78783941700385,42.28721562500141,42.28721562500141,42.35921750000125,42.36591079200298,42.36591079200298,44.20201591699879,left,2.4126362499955576,None,44.20245183299994,44.20249962500384,None,,,,,,,,,,,,eliza,0,2025-08-25_13h52.38.631,tilt_mocs,2023.2.3,None,2025-08-25 13h52.47.998593 -0400,
-4.722222222222221,-15.0,p2,negs,100,,,,,,,,,0,9,9,486,44.21245245799946,,,,,,,,,,,,,,,,,,,,,,,,,,,,,,44.2029453330033,44.21245245799946,44.70368241699907,44.70368241699907,44.78358424999897,44.78358424999897,44.78358424999897,45.578127166998456,right,1.3618710000009742,None,45.57856558300409,45.5786137920004,None,,,,,,,,,,,,eliza,0,2025-08-25_13h52.38.631,tilt_mocs,2023.2.3,None,2025-08-25 13h52.47.998593 -0400,
4.694444444444445,15.0,p3,poss,100,,,,,,,,,0,10,10,258,45.58854183299991,,,,,,,,,,,,,,,,,,,,,,,,,,,,,,45.579029833003005,45.58854183299991,46.08702474999882,46.08702474999882,46.1598876249991,46.166959250003856,46.166959250003856,46.7019966250009,right,1.1108779999995022,None,46.70243320800364,46.70248216699838,None,,,,,,,,,,,,eliza,0,2025-08-25_13h52.38.631,tilt_mocs,2023.2.3,None,2025-08-25 13h52.47.998593 -0400,
-4.222222222222221,-15.0,p3,negs,100,,,,,,,,,0,11,11,525,46.712162374999025,,,,,,,,,,,,,,,,,,,,,,,,,,,,,,46.70291237500351,46.712162374999025,47.20502929200302,47.20502929200302,47.28413858300337,47.28413858300337,47.28413858300337,47.86782070800109,right,1.1539984589981032,None,47.86825537500408,47.868305417003285,None,,,,,,,,,,,,eliza,0,2025-08-25_13h52.38.631,tilt_mocs,2023.2.3,None,2025-08-25 13h52.47.998593 -0400,
4.694444444444445,15.0,p3,poss,100,,,,,,,,,0,12,12,278,47.87869791700359,,,,,,,,,,,,,,,,,,,,,,,,,,,,,,47.86873041700164,47.87869791700359,48.37056470799871,48.37056470799871,48.45094308300031,48.45094308300031,48.45094308300031,48.960916167001415,right,1.0754468750019441,None,48.961349791999965,48.96139462500287,None,,,,,,,,,,,,eliza,0,2025-08-25_13h52.38.631,tilt_mocs,2023.2.3,None,2025-08-25 13h52.47.998593 -0400,
-6.722222222222221,-15.0,m2,negs,100,,,,,,,,,0,13,13,323,48.97070783300296,,,,,,,,,,,,,,,,,,,,,,,,,,,,,,48.96183150000434,48.97070783300296,49.47066191700287,49.47066191700287,49.543332458000805,49.55033774999902,49.55033774999902,50.16768800000136,right,1.1948120829983964,None,50.16812100000243,50.168167458003154,None,,,,,,,,,,,,eliza,0,2025-08-25_13h52.38.631,tilt_mocs,2023.2.3,None,2025-08-25 13h52.47.998593 -0400,
3.6944444444444446,15.0,p1,poss,100,,,,,,,,,0,14,14,187,50.177331500002765,,,,,,,,,,,,,,,,,,,,,,,,,,,,,,50.16860020800232,50.177331500002765,50.67163520800386,50.67163520800386,50.75102937500196,50.75102937500196,50.75102937500196,51.394732583001314,right,1.207294792002358,None,51.39515854199999,51.39521187500213,None,,,,,,,,,,,,eliza,0,2025-08-25_13h52.38.631,tilt_mocs,2023.2.3,None,2025-08-25 13h52.47.998593 -0400,
-5.722222222222221,-15.0,PSE,negs,100,,,,,,,,,0,15,15,432,51.40458229200158,,,,,,,,,,,,,,,,,,,,,,,,,,,,,,51.39564141700248,51.40458229200158,51.90557975000411,51.90557975000411,51.97660225000436,51.983477207999385,51.983477207999385,52.52798020800401,right,1.1159521669978858,None,52.52836583300086,52.528406042001734,None,,,,,,,,,,,,eliza,0,2025-08-25_13h52.38.631,tilt_mocs,2023.2.3,None,2025-08-25 13h52.47.998593 -0400,
-5.722222222222221,-15.0,PSE,negs,100,,,,,,,,,0,16,16,426,52.537488957997994,,,,,,,,,,,,,,,,,,,,,,,,,,,,,,52.52874716700171,52.537488957997994,53.03835025000444,53.03835025000444,53.11001974999817,53.116966667003,53.116966667003,53.56799300000421,right,1.0278590410016477,None,53.568348792003235,53.56838762500411,None,,,,,,,,,,,,eliza,0,2025-08-25_13h52.38.631,tilt_mocs,2023.2.3,None,2025-08-25 13h52.47.998593 -0400,
-6.222222222222221,-15.0,m1,negs,100,,,,,,,,,0,17,17,373,53.57776108300459,,,,,,,,,,,,,,,,,,,,,,,,,,,,,,53.56872983300127,53.57776108300459,54.070627792003506,54.070627792003506,54.151603250000335,54.151603250000335,54.151603250000335,54.711334291998355,right,1.124303291006072,None,54.71177270800399,54.71182725000108,None,,,,,,,,,,,,eliza,0,2025-08-25_13h52.38.631,tilt_mocs,2023.2.3,None,2025-08-25 13h52.47.998593 -0400,
-6.222222222222221,-15.0,m1,negs,100,,,,,,,,,0,18,18,375,54.721490458003245,,,,,,,,,,,,,,,,,,,,,,,,,,,,,,54.71224129199982,54.721490458003245,55.222500832998776,55.222500832998776,55.29332762500417,55.300462625004,55.300462625004,55.894616500001575,right,1.163494250002259,None,55.894980458004284,55.895020583004225,None,,,,,,,,,,,,eliza,0,2025-08-25_13h52.38.631,tilt_mocs,2023.2.3,None,2025-08-25 13h52.47.998593 -0400,
-1.8611111111111116,0.0,m1,noss,0,,,,,,,,,0,19,19,600,55.90452337500028,,,,,,,,,,,,,,,,,,,,,,,,,,,,,,55.89541370799998,55.90452337500028,56.40465758299979,56.40465758299979,56.47666012500122,56.483561708002526,56.483561708002526,56.99463595799898,right,1.083843833002902,None,56.99498966700048,56.995029750003596,None,,,,,,,,,,,,eliza,0,2025-08-25_13h52.38.631,tilt_mocs,2023.2.3,None,2025-08-25 13h52.47.998593 -0400,
-4.222222222222221,-15.0,p3,negs,100,,,,,,,,,0,20,20,531,57.00416324999969,,,,,,,,,,,,,,,,,,,,,,,,,,,,,,56.99537812500057,57.00416324999969,57.50461545800499,57.50461545800499,57.57671012500214,57.58362512500025,57.58362512500025,58.17772779200459,right,1.169700541999191,None,58.17815074999817,58.17819508300454,None,,,,,,,,,,,,eliza,0,2025-08-25_13h52.38.631,tilt_mocs,2023.2.3,None,2025-08-25 13h52.47.998593 -0400,
-5.722222222222221,-15.0,PSE,negs,100,,,,,,,,,0,21,21,434,58.18747004200122,,,,,,,,,,,,,,,,,,,,,,,,,,,,,,58.17860108300374,58.18747004200122,58.688192792003974,58.688192792003974,58.76002208299906,58.76662358300382,58.76662358300382,59.21882466700481,right,1.0301288749978994,None,59.21918262499821,59.21922337500291,None,,,,,,,,,,,,eliza,0,2025-08-25_13h52.38.631,tilt_mocs,2023.2.3,None,2025-08-25 13h52.47.998593 -0400,
1.6944444444444446,15.0,m3,poss,100,,,,,,,,,0,22,22,5,59.22879408299923,,,,,,,,,,,,,,,,,,,,,,,,,,,,,,59.219564250000985,59.22879408299923,59.72154829200008,59.72154829200008,59.801227666997875,59.801227666997875,59.801227666997875,60.518279916999745,right,1.2861276249968796,None,60.51863633299945,60.518674541999644,None,,,,,,,,,,,,eliza,0,2025-08-25_13h52.38.631,tilt_mocs,2023.2.3,None,2025-08-25 13h52.47.998593 -0400,
2.1944444444444446,15.0,m2,poss,100,,,,,,,,,0,23,23,68,60.54349608300254,,,,,,,,,,,,,,,,,,,,,,,,,,,,,,60.51902829200117,60.54349608300254,61.02054925000266,61.02054925000266,61.102128375001485,61.102128375001485,61.102128375001485,61.578127708002285,right,1.0248477079949225,None,61.57855383300193,61.578600125001685,None,,,,,,,,,,,,eliza,0,2025-08-25_13h52.38.631,tilt_mocs,2023.2.3,None,2025-08-25 13h52.47.998593 -0400,
-7.222222222222221,-15.0,m3,negs,100,,,,,,,,,0,24,24,289,61.587872583004355,,,,,,,,,,,,,,,,,,,,,,,,,,,,,,61.57902800000011,61.587872583004355,62.08735075000004,62.08735075000004,62.160062499999185,62.16707787500491,62.16707787500491,62.61138245800248,right,1.019253917002061,None,62.611742667002545,62.611783874999674,None,,,,,,,,,,,,eliza,0,2025-08-25_13h52.38.631,tilt_mocs,2023.2.3,None,2025-08-25 13h52.47.998593 -0400,
-1.8611111111111116,0.0,m1,noss,0,,,,,,,,,0,25,25,604,62.620876958004374,,,,,,,,,,,,,,,,,,,,,,,,,,,,,,62.6121212500002,62.620876958004374,63.121640292003576,63.121640292003576,63.193419000002905,63.200451458003954,63.200451458003954,63.58545016700373,right,0.9620524579950143,None,63.5858781670031,63.585926917003235,None,,,,,,,,,,,,eliza,0,2025-08-25_13h52.38.631,tilt_mocs,2023.2.3,None,2025-08-25 13h52.47.998593 -0400,
-4.222222222222221,-15.0,p3,negs,100,,,,,,,,,0,26,26,534,63.59544233300403,,,,,,,,,,,,,,,,,,,,,,,,,,,,,,63.58633695800381,63.59544233300403,64.08837316700374,64.08837316700374,64.16751550000481,64.16751550000481,64.16751550000481,64.51803429199936,right,0.919460249999247,None,64.51846370800195,64.51851266700396,None,,,,,,,,,,,,eliza,0,2025-08-25_13h52.38.631,tilt_mocs,2023.2.3,None,2025-08-25 13h52.47.998593 -0400,
-6.722222222222221,-15.0,m2,negs,100,,,,,,,,,0,27,27,357,64.54355566699815,,,,,,,,,,,,,,,,,,,,,,,,,,,,,,64.51893712500168,64.54355566699815,65.02100208299817,65.02100208299817,65.10139620800328,65.10139620800328,65.10139620800328,65.47789500000363,right,0.9259733340004459,None,65.47832837500027,65.4783787080014,None,,,,,,,,,,,,eliza,0,2025-08-25_13h52.38.631,tilt_mocs,2023.2.3,None,2025-08-25 13h52.47.998593 -0400,
-2.861111111111112,0.0,m3,noss,0,,,,,,,,,0,28,28,560,65.4882260000013,,,,,,,,,,,,,,,,,,,,,,,,,,,,,,65.47883416699915,65.4882260000013,65.98923941700195,65.98923941700195,66.06011412500084,66.06722529200488,66.06722529200488,66.64496129200415,right,1.1477165420001256,None,66.64538995800103,66.64543745799892,None,,,,,,,,,,,,eliza,0,2025-08-25_13h52.38.631,tilt_mocs,2023.2.3,None,2025-08-25 13h52.47.998593 -0400,
3.1944444444444446,15.0,PSE,poss,100,,,,,,,,,0,29,29,148,66.65566162500181,,,,,,,,,,,,,,,,,,,,,,,,,,,,,,66.64586275000329,66.65566162500181,67.15518791700015,67.15518791700015,67.2267867920018,67.23394520800503,67.23394520800503,67.85148191700137,right,1.1922140419992502,None,67.85183679200418,67.85187654200126,None,,,,,,,,,,,,eliza,0,2025-08-25_13h52.38.631,tilt_mocs,2023.2.3,None,2025-08-25 13h52.47.998593 -0400,
-7.222222222222221,-15.0,m3,negs,100,,,,,,,,,0,30,30,308,67.87689470800251,,,,,,,,,,,,,,,,,,,,,,,,,,,,,,67.85224304199801,67.87689470800251,68.35415054199984,68.35415054199984,68.43537391700374,68.43537391700374,68.43537391700374,68.96788000000379,right,1.0885804999998072,None,68.96823570800188,68.96827566700085,None,,,,,,,,,,,,eliza,0,2025-08-25_13h52.38.631,tilt_mocs,2023.2.3,None,2025-08-25 13h52.47.998593 -0400,
4.194444444444445,15.0,p2,poss,100,,,,,,,,,0,31,31,201,68.97706220800319,,,,,,,,,,,,,,,,,,,,,,,,,,,,,,68.968640375002,68.97706220800319,69.47151420800219,69.47151420800219,69.55155654199916,69.55155654199916,69.55155654199916,70.49483637500089,right,1.5128130420052912,None,70.49519241700182,70.49523154200142,None,,,,,,,,,,,,eliza,0,2025-08-25_13h52.38.631,tilt_mocs,2023.2.3,None,2025-08-25 13h52.47.998593 -0400,
2.1944444444444446,15.0,m2,poss,100,,,,,,,,,0,32,32,48,70.50429729199823,,,,,,,,,,,,,,,,,,,,,,,,,,,,,,70.49557133299822,70.50429729199823,71.00420962500357,71.00420962500357,71.07690158300102,71.08339975000126,71.08339975000126,71.49472966699977,right,0.9849096670004656,None,71.4951546250013,71.49520004200167,None,,,,,,,,,,,,eliza,0,2025-08-25_13h52.38.631,tilt_mocs,2023.2.3,None,2025-08-25 13h52.47.998593 -0400,
-6.222222222222221,-15.0,m1,negs,100,,,,,,,,,0,33,33,364,71.50451025000075,,,,,,,,,,,,,,,,,,,,,,,,,,,,,,71.49561141699814,71.50451025000075,72.00530391700158,72.00530391700158,72.07684658300423,72.08381699999882,72.08381699999882,72.5519949580048,right,1.0420647089995327,None,72.55242925000493,72.55247737500031,None,,,,,,,,,,,,eliza,0,2025-08-25_13h52.38.631,tilt_mocs,2023.2.3,None,2025-08-25 13h52.47.998593 -0400,
-4.222222222222221,-15.0,p3,negs,100,,,,,,,,,0,34,34,557,72.57699212500302,,,,,,,,,,,,,,,,,,,,,,,,,,,,,,72.55287274999864,72.57699212500302,73.05422637500305,73.05422637500305,73.13446512500377,73.13446512500377,73.13446512500377,73.57742733300256,right,0.9934664579996024,None,73.5777820420044,73.5778211249999,None,,,,,,,,,,,,eliza,0,2025-08-25_13h52.38.631,tilt_mocs,2023.2.3,None,2025-08-25 13h52.47.998593 -0400,
3.6944444444444446,15.0,p1,poss,100,,,,,,,,,0,35,35,170,73.58705687500333,,,,,,,,,,,,,,,,,,,,,,,,,,,,,,73.57816562500375,73.58705687500333,74.08723179200024,74.08723179200024,74.16032120800082,74.1671963330009,74.1671963330009,74.54515537500265,right,0.949929707996489,None,74.54552225000225,74.54556108300312,None,,,,,,,,,,,,eliza,0,2025-08-25_13h52.38.631,tilt_mocs,2023.2.3,None,2025-08-25 13h52.47.998593 -0400,
-5.222222222222221,-15.0,p1,negs,100,,,,,,,,,0,36,36,451,74.55460770799982,,,,,,,,,,,,,,,,,,,,,,,,,,,,,,74.54589612500422,74.55460770799982,75.05401537500438,75.05401537500438,75.12600904200372,75.13300608300051,75.13300608300051,75.55147645800025,right,0.990748625001288,None,75.55190583300282,75.55195312500291,None,,,,,,,,,,,,eliza,0,2025-08-25_13h52.38.631,tilt_mocs,2023.2.3,None,2025-08-25 13h52.47.998593 -0400,
-2.361111111111112,0.0,m2,noss,0,,,,,,,,,0,37,37,585,75.57714845800365,,,,,,,,,,,,,,,,,,,,,,,,,,,,,,75.5523615830025,75.57714845800365,76.05429366700264,76.05429366700264,76.13523812500353,76.13523812500353,76.13523812500353,76.53520225000102,right,0.9564493750003749,None,76.53562541700376,76.53567258299881,None,,,,,,,,,,,,eliza,0,2025-08-25_13h52.38.631,tilt_mocs,2023.2.3,None,2025-08-25 13h52.47.998593 -0400,
-5.722222222222221,-15.0,PSE,negs,100,,,,,,,,,0,38,38,428,76.56036587500421,,,,,,,,,,,,,,,,,,,,,,,,,,,,,,76.53607487500267,76.56036587500421,77.03756779200194,77.03756779200194,77.11802416700084,77.11802416700084,77.11802416700084,77.49567641699832,right,0.9340929169993615,None,77.49603733300319,77.49607470800402,None,,,,,,,,,,,,eliza,0,2025-08-25_13h52.38.631,tilt_mocs,2023.2.3,None,2025-08-25 13h52.47.998593 -0400,
4.194444444444445,15.0,p2,poss,100,,,,,,,,,0,39,39,205,77.50536195799941,,,,,,,,,,,,,,,,,,,,,,,,,,,,,,77.49641837499803,77.50536195799941,78.00464679200377,78.00464679200377,78.07597954200173,78.08304750000389,78.08304750000389,78.4850102499986,right,0.9780420409952058,None,78.48536154199974,78.48540075000346,None,,,,,,,,,,,,eliza,0,2025-08-25_13h52.38.631,tilt_mocs,2023.2.3,None,2025-08-25 13h52.47.998593 -0400,
4.694444444444445,15.0,p3,poss,100,,,,,,,,,0,40,40,274,78.49459216700052,,,,,,,,,,,,,,,,,,,,,,,,,,,,,,78.48574658299913,78.49459216700052,78.98862679200101,78.98862679200101,79.06803025000409,79.06803025000409,79.06803025000409,79.39564858299855,right,0.8999758329955512,None,79.39600416699977,79.39604074999806,None,,,,,,,,,,,,eliza,0,2025-08-25_13h52.38.631,tilt_mocs,2023.2.3,None,2025-08-25 13h52.47.998593 -0400,
2.1944444444444446,15.0,m2,poss,100,,,,,,,,,0,41,41,43,79.40514054200321,,,,,,,,,,,,,,,,,,,,,,,,,,,,,,79.39638033300434,79.40514054200321,79.9040796670015,79.9040796670015,79.97689737500332,79.98399316699943,79.98399316699943,80.48446062500443,right,1.0744402499985881,None,80.48481979200005,80.48485816700122,None,,,,,,,,,,,,eliza,0,2025-08-25_13h52.38.631,tilt_mocs,2023.2.3,None,2025-08-25 13h52.47.998593 -0400,
2.1944444444444446,15.0,m2,poss,100,,,,,,,,,0,42,42,78,80.49374883300334,,,,,,,,,,,,,,,,,,,,,,,,,,,,,,80.48520733300393,80.49374883300334,80.98715283300407,80.98715283300407,81.06730462500127,81.06730462500127,81.06730462500127,81.56822029199975,right,1.0684911249991274,None,81.56865449999896,81.568701917,None,,,,,,,,,,,,eliza,0,2025-08-25_13h52.38.631,tilt_mocs,2023.2.3,None,2025-08-25 13h52.47.998593 -0400,
-0.3611111111111114,0.0,p2,noss,0,,,,,,,,,0,43,43,676,81.59386037500371,,,,,,,,,,,,,,,,,,,,,,,,,,,,,,81.56912358300178,81.59386037500371,82.07279829199979,82.07279829199979,82.15105679200497,82.15105679200497,82.15105679200497,82.52781758300262,right,0.9307646669985843,None,82.52817333300482,82.52821350000158,None,,,,,,,,,,,,eliza,0,2025-08-25_13h52.38.631,tilt_mocs,2023.2.3,None,2025-08-25 13h52.47.998593 -0400,
-5.222222222222221,-15.0,p1,negs,100,,,,,,,,,0,44,44,459,82.53717187500297,,,,,,,,,,,,,,,,,,,,,,,,,,,,,,82.52854741700139,82.53717187500297,83.0385195830022,83.0385195830022,83.11027100000501,83.11688087500079,83.11688087500079,83.43520620799973,right,0.89502133300266,None,83.43556837500364,83.43560725000134,None,,,,,,,,,,,,eliza,0,2025-08-25_13h52.38.631,tilt_mocs,2023.2.3,None,2025-08-25 13h52.47.998593 -0400,
3.1944444444444446,15.0,PSE,poss,100,,,,,,,,,0,45,45,141,83.46043654200184,,,,,,,,,,,,,,,,,,,,,,,,,,,,,,83.43595254200045,83.46043654200184,83.93860045800102,83.93860045800102,84.01844104200427,84.01844104200427,84.01844104200427,84.32825479200255,right,0.8597976660021232,None,84.32867791700119,84.32872287500504,None,,,,,,,,,,,,eliza,0,2025-08-25_13h52.38.631,tilt_mocs,2023.2.3,None,2025-08-25 13h52.47.998593 -0400,
1.6944444444444446,15.0,m3,poss,100,,,,,,,,,0,46,46,1,84.33819954199862,,,,,,,,,,,,,,,,,,,,,,,,,,,,,,84.32912916700298,84.33819954199862,84.83870845800266,84.83870845800266,84.91028079199896,84.917279082998,84.917279082998,85.19509354200272,right,0.8487897080049152,None,85.19552079200366,85.19556691699836,None,,,,,,,,,,,,eliza,0,2025-08-25_13h52.38.631,tilt_mocs,2023.2.3,None,2025-08-25 13h52.47.998593 -0400,
-1.3611111111111114,0.0,PSE,noss,0,,,,,,,,,0,47,47,633,85.20468054200319,,,,,,,,,,,,,,,,,,,,,,,,,,,,,,85.19597612500365,85.20468054200319,85.70531412499986,85.70531412499986,85.77694033300213,85.78385083300236,85.78385083300236,86.61091775000386,right,1.396641167004418,None,86.61130275000323,86.61134270799812,None,,,,,,,,,,,,eliza,0,2025-08-25_13h52.38.631,tilt_mocs,2023.2.3,None,2025-08-25 13h52.47.998593 -0400,
-4.722222222222221,-15.0,p2,negs,100,,,,,,,,,0,48,48,503,86.61833379200107,,,,,,,,,,,,,,,,,,,,,,,,,,,,,,86.61168112500309,86.61833379200107,87.12145208300353,87.12145208300353,87.19366587499826,87.20070724999823,87.20070724999823,87.76832587500394,right,1.1457146249958896,None,87.76874812500319,87.768794333002,None,,,,,,,,,,,,eliza,0,2025-08-25_13h52.38.631,tilt_mocs,2023.2.3,None,2025-08-25 13h52.47.998593 -0400,
-1.3611111111111114,0.0,PSE,noss,0,,,,,,,,,0,49,49,639,87.79392758299946,,,,,,,,,,,,,,,,,,,,,,,,,,,,,,87.76920879200043,87.79392758299946,88.27150937500119,88.27150937500119,88.35108483300428,88.35108483300428,88.35108483300428,88.88510254200082,right,1.0872375839971937,None,88.88546833299915,88.88550745799876,None,,,,,,,,,,,,eliza,0,2025-08-25_13h52.38.631,tilt_mocs,2023.2.3,None,2025-08-25 13h52.47.998593 -0400,
-6.722222222222221,-15.0,m2,negs,100,,,,,,,,,0,50,50,354,88.91046620799898,,,,,,,,,,,,,,,,,,,,,,,,,,,,,,88.88584245800303,88.91046620799898,89.38899116700486,89.38899116700486,89.4683082920019,89.4683082920019,89.4683082920019,89.8850915830044,right,0.9731975419999799,None,89.88544337500207,89.88548187500419,None,,,,,,,,,,,,eliza,0,2025-08-25_13h52.38.631,tilt_mocs,2023.2.3,None,2025-08-25 13h52.47.998593 -0400,
-6.222222222222221,-15.0,m1,negs,100,,,,,,,,,0,51,51,391,89.89446108300035,,,,,,,,,,,,,,,,,,,,,,,,,,,,,,89.88581604199862,89.89446108300035,90.38798695800506,90.38798695800506,90.46872479200101,90.46872479200101,90.46872479200101,91.17873708299885,right,1.2829064170000493,None,91.17917354200472,91.17922012499912,None,,,,,,,,,,,,eliza,0,2025-08-25_13h52.38.631,tilt_mocs,2023.2.3,None,2025-08-25 13h52.47.998593 -0400,
3.6944444444444446,15.0,p1,poss,100,,,,,,,,,0,52,52,173,91.18851412500226,,,,,,,,,,,,,,,,,,,,,,,,,,,,,,91.17962350000016,91.18851412500226,91.68893150000076,91.68893150000076,91.76032133300032,91.76734645800025,91.76734645800025,92.31810566700005,right,1.1228701660002116,None,92.31846008299908,92.31850000000122,None,,,,,,,,,,,,eliza,0,2025-08-25_13h52.38.631,tilt_mocs,2023.2.3,None,2025-08-25 13h52.47.998593 -0400,
4.194444444444445,15.0,p2,poss,100,,,,,,,,,0,53,53,219,92.3276919580021,,,,,,,,,,,,,,,,,,,,,,,,,,,,,,92.31884504199843,92.3276919580021,92.82193670800189,92.82193670800189,92.90128691700374,92.90128691700374,92.90128691700374,93.55195754200395,right,1.2176201670008595,None,93.5523877500018,93.55243725000037,None,,,,,,,,,,,,eliza,0,2025-08-25_13h52.38.631,tilt_mocs,2023.2.3,None,2025-08-25 13h52.47.998593 -0400,
-5.722222222222221,-15.0,PSE,negs,100,,,,,,,,,0,54,54,407,93.56278637499781,,,,,,,,,,,,,,,,,,,,,,,,,,,,,,93.55286141700344,93.56278637499781,94.05533158300386,94.05533158300386,94.13472512500448,94.13472512500448,94.13472512500448,94.48541537499841,right,0.9207682920023217,None,94.48583704200428,94.48588087499957,None,,,,,,,,,,,,eliza,0,2025-08-25_13h52.38.631,tilt_mocs,2023.2.3,None,2025-08-25 13h52.47.998593 -0400,
-0.8611111111111114,0.0,p1,noss,0,,,,,,,,,0,55,55,644,94.51069658299821,,,,,,,,,,,,,,,,,,,,,,,,,,,,,,94.48629716700088,94.51069658299821,94.98739149999892,94.98739149999892,95.06845979200443,95.06845979200443,95.06845979200443,95.46096083299926,right,0.9425195419971715,None,95.46133229200495,95.4613707919998,None,,,,,,,,,,,,eliza,0,2025-08-25_13h52.38.631,tilt_mocs,2023.2.3,None,2025-08-25 13h52.47.998593 -0400,
-2.361111111111112,0.0,m2,noss,0,,,,,,,,,0,56,56,581,95.4702957920017,,,,,,,,,,,,,,,,,,,,,,,,,,,,,,95.46170920800068,95.4702957920017,95.97193529200013,95.97193529200013,96.04377208300139,96.0503363750031,96.0503363750031,97.53510887500306,right,2.061215749999974,None,97.53548245799902,97.53552195800148,None,,,,,,,,,,,,eliza,0,2025-08-25_13h52.38.631,tilt_mocs,2023.2.3,None,2025-08-25 13h52.47.998593 -0400,
-4.222222222222221,-15.0,p3,negs,100,,,,,,,,,0,57,57,523,97.54484354200395,,,,,,,,,,,,,,,,,,,,,,,,,,,,,,97.53587300000072,97.54484354200395,98.03863816700323,98.03863816700323,98.1178230420046,98.1178230420046,98.1178230420046,98.58533837499999,right,1.0388031659967965,None,98.58576262499992,98.5858101249978,None,,,,,,,,,,,,eliza,0,2025-08-25_13h52.38.631,tilt_mocs,2023.2.3,None,2025-08-25 13h52.47.998593 -0400,
2.1944444444444446,15.0,m2,poss,100,,,,,,,,,0,58,58,42,98.59618020799826,,,,,,,,,,,,,,,,,,,,,,,,,,,,,,98.58622845799982,98.59618020799826,99.08754662499996,99.08754662499996,99.16815837500326,99.16815837500326,99.16815837500326,99.85143129200151,right,1.249948166005197,None,99.85179120799876,99.85182979200181,None,,,,,,,,,,,,eliza,0,2025-08-25_13h52.38.631,tilt_mocs,2023.2.3,None,2025-08-25 13h52.47.998593 -0400,
-6.222222222222221,-15.0,m1,negs,100,,,,,,,,,0,59,59,369,99.86122295800305,,,,,,,,,,,,,,,,,,,,,,,,,,,,,,99.85217195800215,99.86122295800305,100.35495029199956,100.35495029199956,100.43538579199958,100.43538579199958,100.43538579199958,100.92829200000415,right,1.0623077920026844,None,100.92872450000141,100.92877104200306,None,,,,,,,,,,,,eliza,0,2025-08-25_13h52.38.631,tilt_mocs,2023.2.3,None,2025-08-25 13h52.47.998593 -0400,
3.1944444444444446,15.0,PSE,poss,100,,,,,,,,,0,60,60,159,100.93829304200335,,,,,,,,,,,,,,,,,,,,,,,,,,,,,,100.9291777920007,100.93829304200335,101.43830504200014,101.43830504200014,101.51040495800407,101.51702283300256,101.51702283300256,102.11881545800134,right,1.1752599579995149,None,102.11917645799986,102.11921520800388,None,,,,,,,,,,,,eliza,0,2025-08-25_13h52.38.631,tilt_mocs,2023.2.3,None,2025-08-25 13h52.47.998593 -0400,
2.1944444444444446,15.0,m2,poss,100,,,,,,,,,0,61,61,70,102.14393020800344,,,,,,,,,,,,,,,,,,,,,,,,,,,,,,102.1195539170003,102.14393020800344,102.62183445800474,102.62183445800474,102.70175170800212,102.70175170800212,102.70175170800212,103.26908808300504,right,1.1229692919951049,None,103.26950766699883,103.26954545800254,None,,,,,,,,,,,,eliza,0,2025-08-25_13h52.38.631,tilt_mocs,2023.2.3,None,2025-08-25 13h52.47.998593 -0400,
-7.222222222222221,-15.0,m3,negs,100,,,,,,,,,0,62,62,280,103.29397437500302,,,,,,,,,,,,,,,,,,,,,,,,,,,,,,103.26988262499799,103.29397437500302,103.77107670799887,103.77107670799887,103.85182329200325,103.85182329200325,103.85182329200325,104.6115021670048,left,1.3091636249955627,None,104.6118601249982,104.611899042,None,,,,,,,,,,,,eliza,0,2025-08-25_13h52.38.631,tilt_mocs,2023.2.3,None,2025-08-25 13h52.47.998593 -0400,
3.1944444444444446,15.0,PSE,poss,100,,,,,,,,,0,63,63,139,104.62119595800323,,,,,,,,,,,,,,,,,,,,,,,,,,,,,,104.61223887500091,104.62119595800323,105.12109820800106,105.12109820800106,105.19381425000029,105.20047995800269,105.20047995800269,105.71149695799977,right,1.0863592090026941,None,105.71191391700268,105.71195866700145,None,,,,,,,,,,,,eliza,0,2025-08-25_13h52.38.631,tilt_mocs,2023.2.3,None,2025-08-25 13h52.47.998593 -0400,
2.1944444444444446,15.0,m2,poss,100,,,,,,,,,0,64,64,69,105.72119187500357,,,,,,,,,,,,,,,,,,,,,,,,,,,,,,105.71236399999907,105.72119187500357,106.22208566700283,106.22208566700283,106.29382908299885,106.3006945829984,106.3006945829984,107.05204179199791,right,1.3253262090001954,None,107.05247554200469,107.05252375000418,None,,,,,,,,,,,,eliza,0,2025-08-25_13h52.38.631,tilt_mocs,2023.2.3,None,2025-08-25 13h52.47.998593 -0400,
-5.222222222222221,-15.0,p1,negs,100,,,,,,,,,0,65,65,464,107.07736608300183,,,,,,,,,,,,,,,,,,,,,,,,,,,,,,107.05293670800165,107.07736608300183,107.55511204199865,107.55511204199865,107.63422345800063,107.63422345800063,107.63422345800063,108.11851195800409,right,1.0386956670045038,None,108.11887508300424,108.1189143330048,None,,,,,,,,,,,,eliza,0,2025-08-25_13h52.38.631,tilt_mocs,2023.2.3,None,2025-08-25 13h52.47.998593 -0400,
-4.722222222222221,-15.0,p2,negs,100,,,,,,,,,0,66,66,481,108.12801191700419,,,,,,,,,,,,,,,,,,,,,,,,,,,,,,108.11926245799987,108.12801191700419,108.62213679200067,108.62213679200067,108.7021155830007,108.7021155830007,108.7021155830007,109.3021545829979,right,1.1687391660016146,None,109.30258695800148,109.30263620799815,None,,,,,,,,,,,,eliza,0,2025-08-25_13h52.38.631,tilt_mocs,2023.2.3,None,2025-08-25 13h52.47.998593 -0400,
3.1944444444444446,15.0,PSE,poss,100,,,,,,,,,0,67,67,123,109.32754541699978,,,,,,,,,,,,,,,,,,,,,,,,,,,,,,109.30303958299919,109.32754541699978,109.80529312499857,109.80529312499857,109.88587304200337,109.88587304200337,109.88587304200337,110.585248125004,right,1.2530175409992808,None,110.58567783299804,110.5857259580007,None,,,,,,,,,,,,eliza,0,2025-08-25_13h52.38.631,tilt_mocs,2023.2.3,None,2025-08-25 13h52.47.998593 -0400,
-5.222222222222221,-15.0,p1,negs,100,,,,,,,,,0,68,68,440,110.6107831670015,,,,,,,,,,,,,,,,,,,,,,,,,,,,,,110.58615000000282,110.6107831670015,111.08806566699786,111.08806566699786,111.16822633300035,111.16822633300035,111.16822633300035,111.68540620800195,right,1.0690240419935435,None,111.68576949999988,111.6858077920042,None,,,,,,,,,,,,eliza,0,2025-08-25_13h52.38.631,tilt_mocs,2023.2.3,None,2025-08-25 13h52.47.998593 -0400,
1.6944444444444446,15.0,m3,poss,100,,,,,,,,,0,69,69,35,111.71073779200378,,,,,,,,,,,,,,,,,,,,,,,,,,,,,,111.68617320799967,111.71073779200378,112.18870716699894,112.18870716699894,112.26869233300386,112.26869233300386,112.26869233300386,112.81170995800494,right,1.0924334160008584,None,112.81214000000182,112.81218549999903,None,,,,,,,,,,,,eliza,0,2025-08-25_13h52.38.631,tilt_mocs,2023.2.3,None,2025-08-25 13h52.47.998593 -0400,
-4.722222222222221,-15.0,p2,negs,100,,,,,,,,,0,70,70,490,112.82167804200435,,,,,,,,,,,,,,,,,,,,,,,,,,,,,,112.81260024999938,112.82167804200435,113.32105437500286,113.32105437500286,113.39390687500418,113.4009560830018,113.4009560830018,113.8526056250048,right,1.0239015409970307,None,113.85302883300028,113.85307383300096,None,,,,,,,,,,,,eliza,0,2025-08-25_13h52.38.631,tilt_mocs,2023.2.3,None,2025-08-25 13h52.47.998593 -0400,
-0.1388888888888886,0.0,p3,noss,0,,,,,,,,,0,71,71,698,113.86249287499959,,,,,,,,,,,,,,,,,,,,,,,,,,,,,,113.85344116700435,113.86249287499959,114.35583916700125,114.35583916700125,114.43502433300455,114.43502433300455,114.43502433300455,114.82821929200145,right,0.9564240839972626,None,114.82864012500067,114.82868433299882,None,,,,,,,,,,,,eliza,0,2025-08-25_13h52.38.631,tilt_mocs,2023.2.3,None,2025-08-25 13h52.47.998593 -0400,
-0.3611111111111114,0.0,p2,noss,0,,,,,,,,,0,72,72,673,114.8381519579998,,,,,,,,,,,,,,,,,,,,,,,,,,,,,,114.82909641700098,114.8381519579998,115.33762762499828,115.33762762499828,115.40994937500363,115.41634558299847,115.41634558299847,115.83562050000182,right,0.9928083749982761,None,115.836063499999,115.83611120800197,None,,,,,,,,,,,,eliza,0,2025-08-25_13h52.38.631,tilt_mocs,2023.2.3,None,2025-08-25 13h52.47.998593 -0400,
-1.8611111111111116,0.0,m1,noss,0,,,,,,,,,0,73,73,618,115.8607772500036,,,,,,,,,,,,,,,,,,,,,,,,,,,,,,115.8365209170006,115.8607772500036,116.33892762500182,116.33892762500182,116.41948974999832,116.41948974999832,116.41948974999832,117.37868554200395,right,1.516821582998091,None,117.37903812500008,117.37907766699936,None,,,,,,,,,,,,eliza,0,2025-08-25_13h52.38.631,tilt_mocs,2023.2.3,None,2025-08-25 13h52.47.998593 -0400,
-7.222222222222221,-15.0,m3,negs,100,,,,,,,,,0,74,74,301,117.38836970800185,,,,,,,,,,,,,,,,,,,,,,,,,,,,,,117.3794191249981,117.38836970800185,117.88769079199847,117.88769079199847,117.96063349999895,117.96764604200143,117.96764604200143,118.61252420800156,left,1.2227747500000987,None,118.6129496670037,118.61299658300413,None,,,,,,,,,,,,eliza,0,2025-08-25_13h52.38.631,tilt_mocs,2023.2.3,None,2025-08-25 13h52.47.998593 -0400,
-6.222222222222221,-15.0,m1,negs,100,,,,,,,,,0,75,75,385,118.62232079200476,,,,,,,,,,,,,,,,,,,,,,,,,,,,,,118.61340608300088,118.62232079200476,119.12151345799793,119.12151345799793,119.19403070800035,119.20096029200067,119.20096029200067,120.02928991700173,right,1.4056080830050632,None,120.02972050000244,120.02976733299874,None,,,,,,,,,,,,eliza,0,2025-08-25_13h52.38.631,tilt_mocs,2023.2.3,None,2025-08-25 13h52.47.998593 -0400,
1.6944444444444446,15.0,m3,poss,100,,,,,,,,,0,76,76,10,120.03881329199794,,,,,,,,,,,,,,,,,,,,,,,,,,,,,,120.0301063750012,120.03881329199794,120.5386010000002,120.5386010000002,120.6107219580008,120.6176489999998,120.6176489999998,121.15212558300118,right,1.1069309590020566,None,121.15248891700321,121.15252795800188,None,,,,,,,,,,,,eliza,0,2025-08-25_13h52.38.631,tilt_mocs,2023.2.3,None,2025-08-25 13h52.47.998593 -0400,
3.6944444444444446,15.0,p1,poss,100,,,,,,,,,0,77,77,163,121.1617531669981,,,,,,,,,,,,,,,,,,,,,,,,,,,,,,121.15287125000032,121.1617531669981,121.65468591700483,121.65468591700483,121.73554400000285,121.73554400000285,121.73554400000285,122.21889720800391,right,1.0520868340026936,None,122.21924937500444,122.2192869999999,None,,,,,,,,,,,,eliza,0,2025-08-25_13h52.38.631,tilt_mocs,2023.2.3,None,2025-08-25 13h52.47.998593 -0400,
-7.222222222222221,-15.0,m3,negs,100,,,,,,,,,0,78,78,288,122.24428229199839,,,,,,,,,,,,,,,,,,,,,,,,,,,,,,122.21963087499898,122.24428229199839,122.72135620799963,122.72135620799963,122.80142866700044,122.80142866700044,122.80142866700044,123.17900750000263,right,0.9278762079993612,None,123.17936670799827,123.17940558300324,None,,,,,,,,,,,,eliza,0,2025-08-25_13h52.38.631,tilt_mocs,2023.2.3,None,2025-08-25 13h52.47.998593 -0400,
1.6944444444444446,15.0,m3,poss,100,,,,,,,,,0,79,79,4,123.18896320799831,,,,,,,,,,,,,,,,,,,,,,,,,,,,,,123.17974074999802,123.18896320799831,123.68889983300323,123.68889983300323,123.760630417004,123.76761945799808,123.76761945799808,124.21246066700405,right,1.0220641669948236,None,124.21289149999939,124.21293904200138,None,,,,,,,,,,,,eliza,0,2025-08-25_13h52.38.631,tilt_mocs,2023.2.3,None,2025-08-25 13h52.47.998593 -0400,
-6.722222222222221,-15.0,m2,negs,100,,,,,,,,,0,80,80,347,124.22278220800217,,,,,,,,,,,,,,,,,,,,,,,,,,,,,,124.21334479199868,124.22278220800217,124.72127683299914,124.72127683299914,124.7940066250012,124.801377667005,124.801377667005,125.36271958300495,left,1.138529000003473,None,125.36314391699852,125.36319195800024,None,,,,,,,,,,,,eliza,0,2025-08-25_13h52.38.631,tilt_mocs,2023.2.3,None,2025-08-25 13h52.47.998593 -0400,
-6.222222222222221,-15.0,m1,negs,100,,,,,,,,,0,81,81,384,125.3727038750003,,,,,,,,,,,,,,,,,,,,,,,,,,,,,,125.3636039999983,125.3727038750003,125.87199933300144,125.87199933300144,125.94406724999862,125.95114900000044,125.95114900000044,127.1121383330028,right,1.731630166999821,None,127.11256566700467,127.11261191700032,None,,,,,,,,,,,,eliza,0,2025-08-25_13h52.38.631,tilt_mocs,2023.2.3,None,2025-08-25 13h52.47.998593 -0400,
-5.722222222222221,-15.0,PSE,negs,100,,,,,,,,,0,82,82,435,127.12180979199911,,,,,,,,,,,,,,,,,,,,,,,,,,,,,,127.11301220799942,127.12180979199911,127.62209495800198,127.62209495800198,127.6940835830028,127.70071345799806,127.70071345799806,128.1022733330028,right,0.9748854580029729,None,128.1027157080025,128.10276079200412,None,,,,,,,,,,,,eliza,0,2025-08-25_13h52.38.631,tilt_mocs,2023.2.3,None,2025-08-25 13h52.47.998593 -0400,
-0.3611111111111114,0.0,p2,noss,0,,,,,,,,,0,83,83,662,128.12771608299954,,,,,,,,,,,,,,,,,,,,,,,,,,,,,,128.10317383299844,128.12771608299954,128.60583329200017,128.60583329200017,128.68561633300124,128.68561633300124,128.68561633300124,129.02868283299904,right,0.8978675840044161,None,129.02904062499874,129.0290801250012,None,,,,,,,,,,,,eliza,0,2025-08-25_13h52.38.631,tilt_mocs,2023.2.3,None,2025-08-25 13h52.47.998593 -0400,
3.6944444444444446,15.0,p1,poss,100,,,,,,,,,0,84,84,184,129.03810162500304,,,,,,,,,,,,,,,,,,,,,,,,,,,,,,129.02941620800266,129.03810162500304,129.53862437500356,129.53862437500356,129.61011045800115,129.61701950000133,129.61701950000133,130.06911599999876,right,1.0272133329999633,None,130.0694795419986,130.06951816700166,None,,,,,,,,,,,,eliza,0,2025-08-25_13h52.38.631,tilt_mocs,2023.2.3,None,2025-08-25 13h52.47.998593 -0400,
-6.722222222222221,-15.0,m2,negs,100,,,,,,,,,0,85,85,352,130.09426325000095,,,,,,,,,,,,,,,,,,,,,,,,,,,,,,130.06986108300043,130.09426325000095,130.57216970800073,130.57216970800073,130.6518076249995,130.6518076249995,130.6518076249995,131.01926300000196,right,0.9212250419950578,None,131.0196959169989,131.01974250000058,None,,,,,,,,,,,,eliza,0,2025-08-25_13h52.38.631,tilt_mocs,2023.2.3,None,2025-08-25 13h52.47.998593 -0400,
-4.722222222222221,-15.0,p2,negs,100,,,,,,,,,0,86,86,504,131.02922062500147,,,,,,,,,,,,,,,,,,,,,,,,,,,,,,131.020145167,131.02922062500147,131.52104500000132,131.52104500000132,131.60198208300426,131.60198208300426,131.60198208300426,132.0119009580012,right,0.9739903749941732,None,132.012340375004,132.01239366699883,None,,,,,,,,,,,,eliza,0,2025-08-25_13h52.38.631,tilt_mocs,2023.2.3,None,2025-08-25 13h52.47.998593 -0400,
-2.861111111111112,0.0,m3,noss,0,,,,,,,,,0,87,87,575,132.02158395800507,,,,,,,,,,,,,,,,,,,,,,,,,,,,,,132.01280470799975,132.02158395800507,132.522838375,132.522838375,132.59409408300417,132.60106050000468,132.60106050000468,133.968996333002,right,1.9457848749952973,None,133.96941912500188,133.96946712500358,None,,,,,,,,,,,,eliza,0,2025-08-25_13h52.38.631,tilt_mocs,2023.2.3,None,2025-08-25 13h52.47.998593 -0400,
-4.722222222222221,-15.0,p2,negs,100,,,,,,,,,0,88,88,498,133.9943098750009,,,,,,,,,,,,,,,,,,,,,,,,,,,,,,133.96987237500434,133.9943098750009,134.47168112500367,134.47168112500367,134.55242404199817,134.55242404199817,134.55242404199817,135.11941099999967,right,1.1180017090009642,None,135.11983650000184,135.1198903330005,None,,,,,,,,,,,,eliza,0,2025-08-25_13h52.38.631,tilt_mocs,2023.2.3,None,2025-08-25 13h52.47.998593 -0400,
-1.3611111111111114,0.0,PSE,noss,0,,,,,,,,,0,89,89,636,135.13060683300137,,,,,,,,,,,,,,,,,,,,,,,,,,,,,,135.1203147080014,135.13060683300137,135.62235375000455,135.62235375000455,135.70145679200505,135.70145679200505,135.70145679200505,136.22909254200204,left,1.0880723750015022,None,136.22947304200352,136.22951175000344,None,,,,,,,,,,,,eliza,0,2025-08-25_13h52.38.631,tilt_mocs,2023.2.3,None,2025-08-25 13h52.47.998593 -0400,
-7.222222222222221,-15.0,m3,negs,100,,,,,,,,,0,90,90,311,136.23857045800105,,,,,,,,,,,,,,,,,,,,,,,,,,,,,,136.22985291700024,136.23857045800105,136.73878433299978,136.73878433299978,136.81079175000195,136.81774700000096,136.81774700000096,137.19542266699864,left,0.9514383749992703,None,137.19585287500377,137.19590104200324,None,,,,,,,,,,,,eliza,0,2025-08-25_13h52.38.631,tilt_mocs,2023.2.3,None,2025-08-25 13h52.47.998593 -0400,
-0.1388888888888886,0.0,p3,noss,0,,,,,,,,,0,91,91,690,137.2059490419997,,,,,,,,,,,,,,,,,,,,,,,,,,,,,,137.19633004200296,137.2059490419997,137.70485033300065,137.70485033300065,137.7775130000009,137.7846399580012,137.7846399580012,139.0516160000043,right,1.8391425420049927,None,139.0519695000039,139.0520081249997,None,,,,,,,,,,,,eliza,0,2025-08-25_13h52.38.631,tilt_mocs,2023.2.3,None,2025-08-25 13h52.47.998593 -0400,
-4.222222222222221,-15.0,p3,negs,100,,,,,,,,,0,92,92,553,139.06080170800124,,,,,,,,,,,,,,,,,,,,,,,,,,,,,,139.05235399999947,139.06080170800124,139.554982792004,139.554982792004,139.6352525830007,139.6352525830007,139.6352525830007,140.36234800000238,right,1.2933275000032154,None,140.36278008299996,140.3628270420013,None,,,,,,,,,,,,eliza,0,2025-08-25_13h52.38.631,tilt_mocs,2023.2.3,None,2025-08-25 13h52.47.998593 -0400,
4.194444444444445,15.0,p2,poss,100,,,,,,,,,0,93,93,226,140.37214187499922,,,,,,,,,,,,,,,,,,,,,,,,,,,,,,140.36322862499946,140.37214187499922,140.87296345800132,140.87296345800132,140.9442193750001,140.95123612500174,140.95123612500174,141.69602733300417,right,1.3225129159982316,None,141.6964494999993,141.69649679199938,None,,,,,,,,,,,,eliza,0,2025-08-25_13h52.38.631,tilt_mocs,2023.2.3,None,2025-08-25 13h52.47.998593 -0400,
-5.722222222222221,-15.0,PSE,negs,100,,,,,,,,,0,94,94,416,141.70567483299965,,,,,,,,,,,,,,,,,,,,,,,,,,,,,,141.69690270800493,141.70567483299965,142.20521091700357,142.20521091700357,142.27752995800256,142.28411516699998,142.28411516699998,142.73619750000216,left,1.0286262090012315,None,142.73661783300486,142.73666220800078,None,,,,,,,,,,,,eliza,0,2025-08-25_13h52.38.631,tilt_mocs,2023.2.3,None,2025-08-25 13h52.47.998593 -0400,
4.194444444444445,15.0,p2,poss,100,,,,,,,,,0,95,95,202,142.74604020800325,,,,,,,,,,,,,,,,,,,,,,,,,,,,,,142.73709016700013,142.74604020800325,143.2394812920029,143.2394812920029,143.3188636249979,143.3188636249979,143.3188636249979,143.96239725000487,right,1.214980666001793,None,143.9628205830013,143.96286683300423,None,,,,,,,,,,,,eliza,0,2025-08-25_13h52.38.631,tilt_mocs,2023.2.3,None,2025-08-25 13h52.47.998593 -0400,
4.694444444444445,15.0,p3,poss,100,,,,,,,,,0,96,96,249,143.97212308300368,,,,,,,,,,,,,,,,,,,,,,,,,,,,,,143.96327133299928,143.97212308300368,144.4724331250036,144.4724331250036,144.54433679200156,144.55106279200118,144.55106279200118,145.119351500005,right,1.144585708003433,None,145.11970841699804,145.11974804200145,None,,,,,,,,,,,,eliza,0,2025-08-25_13h52.38.631,tilt_mocs,2023.2.3,None,2025-08-25 13h52.47.998593 -0400,
3.1944444444444446,15.0,PSE,poss,100,,,,,,,,,0,97,97,155,145.1444029580016,,,,,,,,,,,,,,,,,,,,,,,,,,,,,,145.120082292,145.1444029580016,145.62293325000064,145.62293325000064,145.70181387499906,145.70181387499906,145.70181387499906,146.25169399999868,right,1.1013643750047777,None,146.25205041700247,146.2520884580008,None,,,,,,,,,,,,eliza,0,2025-08-25_13h52.38.631,tilt_mocs,2023.2.3,None,2025-08-25 13h52.47.998593 -0400,
-6.722222222222221,-15.0,m2,negs,100,,,,,,,,,0,98,98,355,146.26092545800202,,,,,,,,,,,,,,,,,,,,,,,,,,,,,,146.2524362080003,146.26092545800202,146.75619729200116,146.75619729200116,146.83491345799848,146.83491345799848,146.83491345799848,147.45255462500063,left,1.1851529589985148,None,147.45290200000454,147.45294187500258,None,,,,,,,,,,,,eliza,0,2025-08-25_13h52.38.631,tilt_mocs,2023.2.3,None,2025-08-25 13h52.47.998593 -0400,
2.6944444444444446,15.0,m1,poss,100,,,,,,,,,0,99,99,94,147.4777217919982,,,,,,,,,,,,,,,,,,,,,,,,,,,,,,147.4532694580048,147.4777217919982,147.95613112499996,147.95613112499996,148.03557166700193,148.03557166700193,148.03557166700193,149.33571183300228,left,1.8513157499983208,None,149.33606858300482,149.33610804199998,None,,,,,,,,,,,,eliza,0,2025-08-25_13h52.38.631,tilt_mocs,2023.2.3,None,2025-08-25 13h52.47.998593 -0400,
3.6944444444444446,15.0,p1,poss,100,,,,,,,,,0,100,100,189,149.36127025000314,,,,,,,,,,,,,,,,,,,,,,,,,,,,,,149.3364480829987,149.36127025000314,149.8391047920013,149.8391047920013,149.91921983299835,149.91921983299835,149.91921983299835,150.69536816699838,right,1.3287896670008195,None,150.69572258300468,153.92902054200385,space,150.7038023330024,150.7038023330024,3.221735916995385,None,,,,,,,,eliza,0,2025-08-25_13h52.38.631,tilt_mocs,2023.2.3,None,2025-08-25 13h52.47.998593 -0400,
2.6944444444444446,15.0,m1,poss,100,,,,,,,,,0,101,101,90,153.93750100000034,,,,,,,,,,,,,,,,,,,,,,,,,,,,,,153.92981566700473,153.93750100000034,154.4377809580037,154.4377809580037,154.5110402920036,154.51777991699782,154.51777991699782,155.52924516700295,right,1.5904732500057435,None,155.52960616700148,155.52964649999922,None,,,,,,,,,,,,eliza,0,2025-08-25_13h52.38.631,tilt_mocs,2023.2.3,None,2025-08-25 13h52.47.998593 -0400,
-0.8611111111111114,0.0,p1,noss,0,,,,,,,,,0,102,102,652,155.53881533299864,,,,,,,,,,,,,,,,,,,,,,,,,,,,,,155.52998862499953,155.53881533299864,156.03872054200474,156.03872054200474,156.11102366699924,156.1180745419988,156.1180745419988,156.76879995800118,right,1.22301462500036,None,156.76915991699934,156.76919929200085,None,,,,,,,,,,,,eliza,0,2025-08-25_13h52.38.631,tilt_mocs,2023.2.3,None,2025-08-25 13h52.47.998593 -0400,
-7.222222222222221,-15.0,m3,negs,100,,,,,,,,,0,103,103,286,156.77874037500442,,,,,,,,,,,,,,,,,,,,,,,,,,,,,,156.76956304199848,156.77874037500442,157.27197624999826,157.27197624999826,157.35292483300145,157.35292483300145,157.35292483300145,157.6791391670049,left,0.8949739169984241,None,157.67956937500276,157.67961433299934,None,,,,,,,,,,,,eliza,0,2025-08-25_13h52.38.631,tilt_mocs,2023.2.3,None,2025-08-25 13h52.47.998593 -0400,
-2.861111111111112,0.0,m3,noss,0,,,,,,,,,0,104,104,569,157.68912045800244,,,,,,,,,,,,,,,,,,,,,,,,,,,,,,157.68003558299824,157.68912045800244,158.18984450000426,158.18984450000426,158.26103991700074,158.26813808300358,158.26813808300358,158.69597604199953,left,0.9963793749993783,None,158.69633458300086,158.6963749580027,None,,,,,,,,,,,,eliza,0,2025-08-25_13h52.38.631,tilt_mocs,2023.2.3,None,2025-08-25 13h52.47.998593 -0400,
-1.3611111111111114,0.0,PSE,noss,0,,,,,,,,,0,105,105,620,158.7055282920046,,,,,,,,,,,,,,,,,,,,,,,,,,,,,,158.696711083001,158.7055282920046,159.20581254200079,159.20581254200079,159.27778699999908,159.28477195800224,159.28477195800224,159.63556979200075,left,0.923285290999047,None,159.63600262500404,159.6360525420023,None,,,,,,,,,,,,eliza,0,2025-08-25_13h52.38.631,tilt_mocs,2023.2.3,None,2025-08-25 13h52.47.998593 -0400,
3.6944444444444446,15.0,p1,poss,100,,,,,,,,,0,106,106,160,159.66119895799784,,,,,,,,,,,,,,,,,,,,,,,,,,,,,,159.63646441700257,159.66119895799784,160.13836408300267,160.13836408300267,160.21836920799979,160.21836920799979,160.21836920799979,160.69559745800507,right,1.026224999994156,None,160.6959550419997,160.69599591699807,None,,,,,,,,,,,,eliza,0,2025-08-25_13h52.38.631,tilt_mocs,2023.2.3,None,2025-08-25 13h52.47.998593 -0400,
-0.1388888888888886,0.0,p3,noss,0,,,,,,,,,0,107,107,682,160.70500933300355,,,,,,,,,,,,,,,,,,,,,,,,,,,,,,160.69634258300357,160.70500933300355,161.20531637500244,161.20531637500244,161.28660800000216,161.28660800000216,161.28660800000216,162.02906554200308,left,1.3143000830023084,None,162.02941933300463,162.0294581670023,None,,,,,,,,,,,,eliza,0,2025-08-25_13h52.38.631,tilt_mocs,2023.2.3,None,2025-08-25 13h52.47.998593 -0400,
-1.8611111111111116,0.0,m1,noss,0,,,,,,,,,0,108,108,614,162.03863258300407,,,,,,,,,,,,,,,,,,,,,,,,,,,,,,162.02980587500497,162.03863258300407,162.53846412499843,162.53846412499843,162.61112262499955,162.61855162500433,162.61855162500433,162.98678775000008,left,0.9457359169973643,None,162.98714154199843,162.98718070799805,None,,,,,,,,,,,,eliza,0,2025-08-25_13h52.38.631,tilt_mocs,2023.2.3,None,2025-08-25 13h52.47.998593 -0400,
4.694444444444445,15.0,p3,poss,100,,,,,,,,,0,109,109,266,162.99645687500015,,,,,,,,,,,,,,,,,,,,,,,,,,,,,,162.98751212500065,162.99645687500015,163.4886281670042,163.4886281670042,163.56985300000088,163.56985300000088,163.56985300000088,164.11233466699923,right,1.1077109170000767,None,164.11272366699995,164.11276237499987,None,,,,,,,,,,,,eliza,0,2025-08-25_13h52.38.631,tilt_mocs,2023.2.3,None,2025-08-25 13h52.47.998593 -0400,
-4.722222222222221,-15.0,p2,negs,100,,,,,,,,,0,110,110,484,164.12189020799997,,,,,,,,,,,,,,,,,,,,,,,,,,,,,,164.11311399999977,164.12189020799997,164.62257125000178,164.62257125000178,164.6945552920006,164.7016429580035,164.7016429580035,165.4797252080025,left,1.3564878329998464,None,165.48015620800288,165.48020783300308,None,,,,,,,,,,,,eliza,0,2025-08-25_13h52.38.631,tilt_mocs,2023.2.3,None,2025-08-25 13h52.47.998593 -0400,
2.6944444444444446,15.0,m1,poss,100,,,,,,,,,0,111,111,81,165.48983970800327,,,,,,,,,,,,,,,,,,,,,,,,,,,,,,165.4806145420007,165.48983970800327,165.98928200000228,165.98928200000228,166.061129624999,166.06810833299824,166.06810833299824,166.41956600000412,left,0.9236007090003113,None,166.42001337499823,166.42005912500463,None,,,,,,,,,,,,eliza,0,2025-08-25_13h52.38.631,tilt_mocs,2023.2.3,None,2025-08-25 13h52.47.998593 -0400,
1.6944444444444446,15.0,m3,poss,100,,,,,,,,,0,112,112,26,166.42950683300296,,,,,,,,,,,,,,,,,,,,,,,,,,,,,,166.42047816700506,166.42950683300296,166.92243079200125,166.92243079200125,167.0016203749983,167.0016203749983,167.0016203749983,167.68630645800295,right,1.2525496250018477,None,167.68671683299908,167.68676312499883,None,,,,,,,,,,,,eliza,0,2025-08-25_13h52.38.631,tilt_mocs,2023.2.3,None,2025-08-25 13h52.47.998593 -0400,
2.6944444444444446,15.0,m1,poss,100,,,,,,,,,0,113,113,93,167.69633574999898,,,,,,,,,,,,,,,,,,,,,,,,,,,,,,167.68717083299998,167.69633574999898,168.18875362499966,168.18875362499966,168.26847129200178,168.26847129200178,168.26847129200178,168.85234966700227,right,1.149516000004951,None,168.8527868750025,168.85283820800396,None,,,,,,,,,,,,eliza,0,2025-08-25_13h52.38.631,tilt_mocs,2023.2.3,None,2025-08-25 13h52.47.998593 -0400,
4.194444444444445,15.0,p2,poss,100,,,,,,,,,0,114,114,232,168.8780255419988,,,,,,,,,,,,,,,,,,,,,,,,,,,,,,168.85324970800139,168.8780255419988,169.35574116700445,169.35574116700445,169.43630391699844,169.43630391699844,169.43630391699844,170.6020747500006,right,1.7175958330044523,None,170.60242945799837,170.6024675420049,None,,,,,,,,,,,,eliza,0,2025-08-25_13h52.38.631,tilt_mocs,2023.2.3,None,2025-08-25 13h52.47.998593 -0400,
-5.722222222222221,-15.0,PSE,negs,100,,,,,,,,,0,115,115,429,170.61127183300414,,,,,,,,,,,,,,,,,,,,,,,,,,,,,,170.6028100830008,170.61127183300414,171.10500083299848,171.10500083299848,171.1860213330001,171.1860213330001,171.1860213330001,171.81265054200048,left,1.1980604170021252,None,171.81307445800485,171.81311895800172,None,,,,,,,,,,,,eliza,0,2025-08-25_13h52.38.631,tilt_mocs,2023.2.3,None,2025-08-25 13h52.47.998593 -0400,
2.6944444444444446,15.0,m1,poss,100,,,,,,,,,0,116,116,113,171.82255100000475,,,,,,,,,,,,,,,,,,,,,,,,,,,,,,171.8135251249987,171.82255100000475,172.32213662499998,172.32213662499998,172.39453095800127,172.40156237500196,172.40156237500196,172.9460205830037,right,1.1164888750063255,None,172.94637916699867,172.9464183750024,None,,,,,,,,,,,,eliza,0,2025-08-25_13h52.38.631,tilt_mocs,2023.2.3,None,2025-08-25 13h52.47.998593 -0400,
2.1944444444444446,15.0,m2,poss,100,,,,,,,,,0,117,117,64,172.9557200420022,,,,,,,,,,,,,,,,,,,,,,,,,,,,,,172.94675837500108,172.9557200420022,173.4549562079992,173.4549562079992,173.527851208004,173.5344313750029,173.5344313750029,174.09634420800285,right,1.1392395419970853,None,174.09677037499932,174.09681704200193,None,,,,,,,,,,,,eliza,0,2025-08-25_13h52.38.631,tilt_mocs,2023.2.3,None,2025-08-25 13h52.47.998593 -0400,
-4.722222222222221,-15.0,p2,negs,100,,,,,,,,,0,118,118,509,174.1062375420006,,,,,,,,,,,,,,,,,,,,,,,,,,,,,,174.09722608300217,174.1062375420006,174.60507916699862,174.60507916699862,174.67789079200156,174.68491725000058,174.68491725000058,175.44647645800433,right,1.338826291001169,None,175.44690504200116,175.4469517079997,None,,,,,,,,,,,,eliza,0,2025-08-25_13h52.38.631,tilt_mocs,2023.2.3,None,2025-08-25 13h52.47.998593 -0400,
-5.722222222222221,-15.0,PSE,negs,100,,,,,,,,,0,119,119,420,175.45658062500297,,,,,,,,,,,,,,,,,,,,,,,,,,,,,,175.44735679199948,175.45658062500297,175.95702695799991,175.95702695799991,176.0279094580037,176.03498191700055,176.03498191700055,176.50293066700397,left,1.0400037910003448,None,176.50328595800238,176.50332529200386,None,,,,,,,,,,,,eliza,0,2025-08-25_13h52.38.631,tilt_mocs,2023.2.3,None,2025-08-25 13h52.47.998593 -0400,
-5.222222222222221,-15.0,p1,negs,100,,,,,,,,,0,120,120,452,176.52804579200165,,,,,,,,,,,,,,,,,,,,,,,,,,,,,,176.50366829200357,176.52804579200165,177.00625066700013,177.00625066700013,177.08598104200064,177.08598104200064,177.08598104200064,177.60297833300137,left,1.0707759169963538,None,177.6034123749996,177.60346033300448,None,,,,,,,,,,,,eliza,0,2025-08-25_13h52.38.631,tilt_mocs,2023.2.3,None,2025-08-25 13h52.47.998593 -0400,
2.6944444444444446,15.0,m1,poss,100,,,,,,,,,0,121,121,110,177.61305491700477,,,,,,,,,,,,,,,,,,,,,,,,,,,,,,177.60387304200412,177.61305491700477,178.10505916699913,178.10505916699913,178.1853747080022,178.1853747080022,178.1853747080022,178.69584804199985,right,1.0784990410029422,None,178.69626950000384,178.69631725000363,None,,,,,,,,,,,,eliza,0,2025-08-25_13h52.38.631,tilt_mocs,2023.2.3,None,2025-08-25 13h52.47.998593 -0400,
-2.861111111111112,0.0,m3,noss,0,,,,,,,,,0,122,122,563,178.70614312500402,,,,,,,,,,,,,,,,,,,,,,,,,,,,,,178.69672358300159,178.70614312500402,179.20568900000217,179.20568900000217,179.27793224999914,179.28490408300422,179.28490408300422,179.65283058299974,left,0.9452932909989613,None,179.65325075000146,179.65328979200422,None,,,,,,,,,,,,eliza,0,2025-08-25_13h52.38.631,tilt_mocs,2023.2.3,None,2025-08-25 13h52.47.998593 -0400,
-4.722222222222221,-15.0,p2,negs,100,,,,,,,,,0,123,123,516,179.67811608299962,,,,,,,,,,,,,,,,,,,,,,,,,,,,,,179.6536263750022,179.67811608299962,180.1550886670011,180.1550886670011,180.23565854199842,180.23565854199842,180.23565854199842,180.812706333003,left,1.1331440829962958,None,180.81312770800287,180.81317458300327,None,,,,,,,,,,,,eliza,0,2025-08-25_13h52.38.631,tilt_mocs,2023.2.3,None,2025-08-25 13h52.47.998593 -0400,
3.6944444444444446,15.0,p1,poss,100,,,,,,,,,0,124,124,196,180.8226835000023,,,,,,,,,,,,,,,,,,,,,,,,,,,,,,180.8135783329999,180.8226835000023,181.3224767080028,181.3224767080028,181.39464129200496,181.4012071670004,181.4012071670004,181.88593525000033,right,1.0590945830044802,None,181.88629237499845,181.886330500005,None,,,,,,,,,,,,eliza,0,2025-08-25_13h52.38.631,tilt_mocs,2023.2.3,None,2025-08-25 13h52.47.998593 -0400,
-0.1388888888888886,0.0,p3,noss,0,,,,,,,,,0,125,125,680,181.8955265830009,,,,,,,,,,,,,,,,,,,,,,,,,,,,,,181.88666812500014,181.8955265830009,182.38937362500292,182.38937362500292,182.46985395799857,182.46985395799857,182.46985395799857,182.94578304199968,right,1.0412870000000112,None,182.9462243329981,182.9462717080023,None,,,,,,,,,,,,eliza,0,2025-08-25_13h52.38.631,tilt_mocs,2023.2.3,None,2025-08-25 13h52.47.998593 -0400,
-2.361111111111112,0.0,m2,noss,0,,,,,,,,,0,126,126,599,182.95599441700324,,,,,,,,,,,,,,,,,,,,,,,,,,,,,,182.94669100000465,182.95599441700324,183.45593395800097,183.45593395800097,183.52796070800105,183.53503029199783,183.53503029199783,183.996479292,left,1.032176000000618,None,183.9969035000031,183.99695112500194,None,,,,,,,,,,,,eliza,0,2025-08-25_13h52.38.631,tilt_mocs,2023.2.3,None,2025-08-25 13h52.47.998593 -0400,
-6.722222222222221,-15.0,m2,negs,100,,,,,,,,,0,127,127,348,184.0065778749995,,,,,,,,,,,,,,,,,,,,,,,,,,,,,,183.99735604200396,184.0065778749995,184.50645975000225,184.50645975000225,184.57801704200392,184.5848452499995,184.5848452499995,185.07933083300304,left,1.0647825420019217,None,185.0796785420025,185.07971700000053,None,,,,,,,,,,,,eliza,0,2025-08-25_13h52.38.631,tilt_mocs,2023.2.3,None,2025-08-25 13h52.47.998593 -0400,
-0.3611111111111114,0.0,p2,noss,0,,,,,,,,,0,128,128,661,185.0890395000024,,,,,,,,,,,,,,,,,,,,,,,,,,,,,,185.08005745799892,185.0890395000024,185.58919225000136,185.58919225000136,185.66135258300346,185.66783483300242,185.66783483300242,186.579585917003,left,1.4821379169952706,None,186.58001341699855,186.5800599580034,None,,,,,,,,,,,,eliza,0,2025-08-25_13h52.38.631,tilt_mocs,2023.2.3,None,2025-08-25 13h52.47.998593 -0400,
2.6944444444444446,15.0,m1,poss,100,,,,,,,,,0,129,129,102,186.58972650000214,,,,,,,,,,,,,,,,,,,,,,,,,,,,,,186.58045995800057,186.58972650000214,187.08978783299972,187.08978783299972,187.16140458299924,187.1684404999978,187.1684404999978,187.64607845800492,right,1.0548689580027713,None,187.64649883300444,187.64654504200007,None,,,,,,,,,,,,eliza,0,2025-08-25_13h52.38.631,tilt_mocs,2023.2.3,None,2025-08-25 13h52.47.998593 -0400,
-7.222222222222221,-15.0,m3,negs,100,,,,,,,,,0,130,130,297,187.65557187500235,,,,,,,,,,,,,,,,,,,,,,,,,,,,,,187.64689187500335,187.65557187500235,188.15580362499895,188.15580362499895,188.23632420800277,188.23632420800277,188.23632420800277,188.59531504200277,left,0.9300089160024072,None,188.59570341699873,188.59574166699895,None,,,,,,,,,,,,eliza,0,2025-08-25_13h52.38.631,tilt_mocs,2023.2.3,None,2025-08-25 13h52.47.998593 -0400,
4.694444444444445,15.0,p3,poss,100,,,,,,,,,0,131,131,261,188.60277308300283,,,,,,,,,,,,,,,,,,,,,,,,,,,,,,188.59607920800045,188.60277308300283,189.1051344580046,189.1051344580046,189.17805370800488,189.18495025000448,189.18495025000448,189.67984820800484,right,1.075690042001952,None,189.68027200000506,189.68031820800388,None,,,,,,,,,,,,eliza,0,2025-08-25_13h52.38.631,tilt_mocs,2023.2.3,None,2025-08-25 13h52.47.998593 -0400,
-0.3611111111111114,0.0,p2,noss,0,,,,,,,,,0,132,132,663,189.68989241700183,,,,,,,,,,,,,,,,,,,,,,,,,,,,,,189.68072920800478,189.68989241700183,190.18863462500303,190.18863462500303,190.26138262500172,190.26798220800265,190.26798220800265,190.85234633299842,right,1.1587045000051148,None,190.85270220800157,190.85274104199925,None,,,,,,,,,,,,eliza,0,2025-08-25_13h52.38.631,tilt_mocs,2023.2.3,None,2025-08-25 13h52.47.998593 -0400,
-2.861111111111112,0.0,m3,noss,0,,,,,,,,,0,133,133,572,190.86224075000064,,,,,,,,,,,,,,,,,,,,,,,,,,,,,,190.8530757500048,190.86224075000064,191.35623837500316,191.35623837500316,191.4365383750046,191.4365383750046,191.4365383750046,191.79634466700372,left,0.929381125002692,None,191.7967767500013,191.79682145800325,None,,,,,,,,,,,,eliza,0,2025-08-25_13h52.38.631,tilt_mocs,2023.2.3,None,2025-08-25 13h52.47.998593 -0400,
-4.722222222222221,-15.0,p2,negs,100,,,,,,,,,0,134,134,512,191.80618379200314,,,,,,,,,,,,,,,,,,,,,,,,,,,,,,191.79723854199983,191.80618379200314,192.30597291699814,192.30597291699814,192.37743108300492,192.38408458299818,192.38408458299818,192.82909316699806,right,1.0141206670014071,None,192.82951433300332,192.82956099999865,None,,,,,,,,,,,,eliza,0,2025-08-25_13h52.38.631,tilt_mocs,2023.2.3,None,2025-08-25 13h52.47.998593 -0400,
3.6944444444444446,15.0,p1,poss,100,,,,,,,,,0,135,135,191,192.83875750000152,,,,,,,,,,,,,,,,,,,,,,,,,,,,,,192.82998291699914,192.83875750000152,193.3394682500002,193.3394682500002,193.4114347499999,193.418465792005,193.418465792005,193.81345108299865,right,0.9732823340018513,None,193.81387466700107,193.81392070800212,None,,,,,,,,,,,,eliza,0,2025-08-25_13h52.38.631,tilt_mocs,2023.2.3,None,2025-08-25 13h52.47.998593 -0400,
-1.8611111111111116,0.0,m1,noss,0,,,,,,,,,0,136,136,601,193.82312279200414,,,,,,,,,,,,,,,,,,,,,,,,,,,,,,193.81427341700328,193.82312279200414,194.32297945800383,194.32297945800383,194.39473991699924,194.40134862500418,194.40134862500418,194.77956883300067,left,0.9484576670001843,None,194.77992575000098,194.7799650829984,None,,,,,,,,,,,,eliza,0,2025-08-25_13h52.38.631,tilt_mocs,2023.2.3,None,2025-08-25 13h52.47.998593 -0400,
-6.722222222222221,-15.0,m2,negs,100,,,,,,,,,0,137,137,324,194.78908545800368,,,,,,,,,,,,,,,,,,,,,,,,,,,,,,194.78032516700478,194.78908545800368,195.28902587500488,195.28902587500488,195.3700702080023,195.3700702080023,195.3700702080023,195.86307937499805,left,1.0668754169964814,None,195.86343916699843,195.863475750004,None,,,,,,,,,,,,eliza,0,2025-08-25_13h52.38.631,tilt_mocs,2023.2.3,None,2025-08-25 13h52.47.998593 -0400,
-0.3611111111111114,0.0,p2,noss,0,,,,,,,,,0,138,138,678,195.87250854200101,,,,,,,,,,,,,,,,,,,,,,,,,,,,,,195.86382066700025,195.87250854200101,196.372167583002,196.372167583002,196.4447796250024,196.45138491700345,196.45138491700345,197.00615183300397,left,1.1233058750003693,None,197.0065153750038,197.00655412500055,None,,,,,,,,,,,,eliza,0,2025-08-25_13h52.38.631,tilt_mocs,2023.2.3,None,2025-08-25 13h52.47.998593 -0400,
2.1944444444444446,15.0,m2,poss,100,,,,,,,,,0,139,139,41,197.01405720799812,,,,,,,,,,,,,,,,,,,,,,,,,,,,,,197.00689599999896,197.01405720799812,197.5109431669989,197.5109431669989,197.58677120799985,197.5949889580006,197.5949889580006,198.01296966700465,left,0.9974902910034871,None,198.01339762499993,198.01344441700348,None,,,,,,,,,,,,eliza,0,2025-08-25_13h52.38.631,tilt_mocs,2023.2.3,None,2025-08-25 13h52.47.998593 -0400,
-2.361111111111112,0.0,m2,noss,0,,,,,,,,,0,140,140,593,198.02302370800317,,,,,,,,,,,,,,,,,,,,,,,,,,,,,,198.01384941700235,198.02302370800317,198.52296108299925,198.52296108299925,198.59482091700193,198.60154458299803,198.60154458299803,199.09656637500302,left,1.0693266250018496,None,199.0969825830034,199.097028917,None,,,,,,,,,,,,eliza,0,2025-08-25_13h52.38.631,tilt_mocs,2023.2.3,None,2025-08-25 13h52.47.998593 -0400,
4.194444444444445,15.0,p2,poss,100,,,,,,,,,0,141,141,237,199.10639020799863,,,,,,,,,,,,,,,,,,,,,,,,,,,,,,199.09743366700422,199.10639020799863,199.6059844170013,199.6059844170013,199.67820283299807,199.68464400000084,199.68464400000084,201.4296400000021,right,2.312657375005074,None,201.43010654200043,201.43015274999925,None,,,,,,,,,,,,eliza,0,2025-08-25_13h52.38.631,tilt_mocs,2023.2.3,None,2025-08-25 13h52.47.998593 -0400,
-2.361111111111112,0.0,m2,noss,0,,,,,,,,,0,142,142,586,201.4376464579982,,,,,,,,,,,,,,,,,,,,,,,,,,,,,,201.430554999999,201.4376464579982,201.9394528749981,201.9394528749981,202.01148187500075,202.01849845800461,202.01849845800461,202.79666766700393,left,1.3495799579977756,None,202.79709370800265,202.797140667004,None,,,,,,,,,,,,eliza,0,2025-08-25_13h52.38.631,tilt_mocs,2023.2.3,None,2025-08-25 13h52.47.998593 -0400,
-7.222222222222221,-15.0,m3,negs,100,,,,,,,,,0,143,143,307,202.80677579199983,,,,,,,,,,,,,,,,,,,,,,,,,,,,,,202.79755729200406,202.80677579199983,203.30665783300356,203.30665783300356,203.3783849169995,203.38578275000327,203.38578275000327,203.86290208300488,left,1.0517525830000523,None,203.86334387500392,203.86339008300274,None,,,,,,,,,,,,eliza,0,2025-08-25_13h52.38.631,tilt_mocs,2023.2.3,None,2025-08-25 13h52.47.998593 -0400,
-7.222222222222221,-15.0,m3,negs,100,,,,,,,,,0,144,144,305,203.8726725000015,,,,,,,,,,,,,,,,,,,,,,,,,,,,,,203.86379312500503,203.8726725000015,204.37189591700007,204.37189591700007,204.44495233300404,204.45090733300458,204.45090733300458,204.9794118330028,left,1.0988892090026638,None,204.9796151670016,204.97963275000075,None,,,,,,,,,,,,eliza,0,2025-08-25_13h52.38.631,tilt_mocs,2023.2.3,None,2025-08-25 13h52.47.998593 -0400,
3.1944444444444446,15.0,PSE,poss,100,,,,,,,,,0,145,145,156,204.98561820800387,,,,,,,,,,,,,,,,,,,,,,,,,,,,,,204.97978487500222,204.98561820800387,205.48872895800014,205.48872895800014,205.56185116700362,205.56835429200146,205.56835429200146,206.0960572920012,right,1.1087918330013053,None,206.09648520799965,206.09653391699976,None,,,,,,,,,,,,eliza,0,2025-08-25_13h52.38.631,tilt_mocs,2023.2.3,None,2025-08-25 13h52.47.998593 -0400,
3.1944444444444446,15.0,PSE,poss,100,,,,,,,,,0,146,146,124,206.10606420800468,,,,,,,,,,,,,,,,,,,,,,,,,,,,,,206.0969329580039,206.10606420800468,206.60574112500035,206.60574112500035,206.67741791700246,206.68395350000355,206.68395350000355,207.16977445800148,right,1.0594392499988317,None,207.1701267919998,207.17016491699906,None,,,,,,,,,,,,eliza,0,2025-08-25_13h52.38.631,tilt_mocs,2023.2.3,None,2025-08-25 13h52.47.998593 -0400,
-2.361111111111112,0.0,m2,noss,0,,,,,,,,,0,147,147,592,207.1952367920021,,,,,,,,,,,,,,,,,,,,,,,,,,,,,,207.17049787499855,207.1952367920021,207.67322895800316,207.67322895800316,207.753670625003,207.753670625003,207.753670625003,208.3720931670032,left,1.1669493750014226,None,208.37246283300192,208.37250150000182,None,,,,,,,,,,,,eliza,0,2025-08-25_13h52.38.631,tilt_mocs,2023.2.3,None,2025-08-25 13h52.47.998593 -0400,
-4.722222222222221,-15.0,p2,negs,100,,,,,,,,,0,148,148,491,208.3950809579983,,,,,,,,,,,,,,,,,,,,,,,,,,,,,,208.3728346249991,208.3950809579983,208.878735667,208.878735667,208.95436904200324,208.96096358299837,208.96096358299837,209.3462401249999,right,0.9469197919970611,None,209.3466793750049,209.34672633300215,None,,,,,,,,,,,,eliza,0,2025-08-25_13h52.38.631,tilt_mocs,2023.2.3,None,2025-08-25 13h52.47.998593 -0400,
4.194444444444445,15.0,p2,poss,100,,,,,,,,,0,149,149,218,209.35648862500238,,,,,,,,,,,,,,,,,,,,,,,,,,,,,,209.34714004200214,209.35648862500238,209.8558447079995,209.8558447079995,209.93603754200012,209.93603754200012,209.93603754200012,210.32986470800097,right,0.9695907089990214,None,210.33028800000466,210.33033575000445,None,,,,,,,,,,,,eliza,0,2025-08-25_13h52.38.631,tilt_mocs,2023.2.3,None,2025-08-25 13h52.47.998593 -0400,
2.6944444444444446,15.0,m1,poss,100,,,,,,,,,0,150,150,119,210.34008704200096,,,,,,,,,,,,,,,,,,,,,,,,,,,,,,210.3307445829996,210.34008704200096,210.84041187500407,210.84041187500407,210.91157662500336,210.9184907500021,210.9184907500021,211.49618125000416,right,1.1549091249980847,None,211.49659966699983,211.49664550000307,None,,,,,,,,,,,,eliza,0,2025-08-25_13h52.38.631,tilt_mocs,2023.2.3,None,2025-08-25 13h52.47.998593 -0400,
-2.861111111111112,0.0,m3,noss,0,,,,,,,,,0,151,151,576,211.50589958300407,,,,,,,,,,,,,,,,,,,,,,,,,,,,,,211.49704870799906,211.50589958300407,212.0053494169988,212.0053494169988,212.07825779200357,212.08526554200216,212.08526554200216,212.4464256670035,left,0.9302776249969611,None,212.446844625003,212.44689045799896,None,,,,,,,,,,,,eliza,0,2025-08-25_13h52.38.631,tilt_mocs,2023.2.3,None,2025-08-25 13h52.47.998593 -0400,
2.6944444444444446,15.0,m1,poss,100,,,,,,,,,0,152,152,104,212.4561066669994,,,,,,,,,,,,,,,,,,,,,,,,,,,,,,212.44730441700085,212.4561066669994,212.95576829199854,212.95576829199854,213.02758495799935,213.03411437500472,213.03411437500472,213.61318058300094,right,1.1523222920004628,None,213.6136094579997,213.6136558750004,None,,,,,,,,,,,,eliza,0,2025-08-25_13h52.38.631,tilt_mocs,2023.2.3,None,2025-08-25 13h52.47.998593 -0400,
4.694444444444445,15.0,p3,poss,100,,,,,,,,,0,153,153,259,213.62319079200097,,,,,,,,,,,,,,,,,,,,,,,,,,,,,,213.61406033299863,213.62319079200097,214.1228890420025,214.1228890420025,214.20078191700304,214.20078191700304,214.20078191700304,214.64618133300246,right,1.0181777500038152,None,214.64662004200363,214.64666908299841,None,,,,,,,,,,,,eliza,0,2025-08-25_13h52.38.631,tilt_mocs,2023.2.3,None,2025-08-25 13h52.47.998593 -0400,
2.1944444444444446,15.0,m2,poss,100,,,,,,,,,0,154,154,53,214.6556913750028,,,,,,,,,,,,,,,,,,,,,,,,,,,,,,214.6470874170045,214.6556913750028,215.15639024999837,215.15639024999837,215.22852233300364,215.23555325000052,215.23555325000052,215.72979674999806,right,1.0727082500015968,None,215.73022545799904,215.7302717499988,None,,,,,,,,,,,,eliza,0,2025-08-25_13h52.38.631,tilt_mocs,2023.2.3,None,2025-08-25 13h52.47.998593 -0400,
-4.222222222222221,-15.0,p3,negs,100,,,,,,,,,0,155,155,543,215.73959337500128,,,,,,,,,,,,,,,,,,,,,,,,,,,,,,215.73067762500432,215.73959337500128,216.2400290000005,216.2400290000005,216.31163641699823,216.3185040419994,216.3185040419994,216.69697329200426,right,0.9560179170002812,None,216.69739654200384,216.6974441670027,None,,,,,,,,,,,,eliza,0,2025-08-25_13h52.38.631,tilt_mocs,2023.2.3,None,2025-08-25 13h52.47.998593 -0400,
-0.1388888888888886,0.0,p3,noss,0,,,,,,,,,0,156,156,685,216.70631766699807,,,,,,,,,,,,,,,,,,,,,,,,,,,,,,216.69778120800038,216.70631766699807,217.20630083300057,217.20630083300057,217.27832458299963,217.28485908300354,217.28485908300354,217.66350812499877,right,0.9558961249931599,None,217.6638682499979,217.6639057920038,None,,,,,,,,,,,,eliza,0,2025-08-25_13h52.38.631,tilt_mocs,2023.2.3,None,2025-08-25 13h52.47.998593 -0400,
4.694444444444445,15.0,p3,poss,100,,,,,,,,,0,157,157,240,217.67307358299877,,,,,,,,,,,,,,,,,,,,,,,,,,,,,,217.66424758300127,217.67307358299877,218.17319687500276,218.17319687500276,218.24503483300214,218.2521300830049,218.2521300830049,218.5958882920022,right,0.9190932499986957,None,218.59623891700176,218.59627916700265,None,,,,,,,,,,,,eliza,0,2025-08-25_13h52.38.631,tilt_mocs,2023.2.3,None,2025-08-25 13h52.47.998593 -0400,
4.194444444444445,15.0,p2,poss,100,,,,,,,,,0,158,158,220,218.60552550000284,,,,,,,,,,,,,,,,,,,,,,,,,,,,,,218.5966154580019,218.60552550000284,219.10613754200313,219.10613754200313,219.17838816699805,219.18527037500462,219.18527037500462,219.59614924999914,right,0.9853395410027588,None,219.59651620800287,219.59655420800118,None,,,,,,,,,,,,eliza,0,2025-08-25_13h52.38.631,tilt_mocs,2023.2.3,None,2025-08-25 13h52.47.998593 -0400,
1.6944444444444446,15.0,m3,poss,100,,,,,,,,,0,159,159,0,219.60612204200152,,,,,,,,,,,,,,,,,,,,,,,,,,,,,,219.59689512500336,219.60612204200152,220.10615987500205,220.10615987500205,220.17851945800066,220.1856194580032,220.1856194580032,220.6130028750049,right,0.995991125004366,None,220.61336287500308,220.61340162499982,None,,,,,,,,,,,,eliza,0,2025-08-25_13h52.38.631,tilt_mocs,2023.2.3,None,2025-08-25 13h52.47.998593 -0400,
2.6944444444444446,15.0,m1,poss,100,,,,,,,,,0,160,160,86,220.62052445799782,,,,,,,,,,,,,,,,,,,,,,,,,,,,,,220.61373720800475,220.62052445799782,221.12218654200115,221.12218654200115,221.19507016699936,221.20211458300037,221.20211458300037,221.50369412500004,right,0.8818053340000915,None,221.50411408299988,221.50416062500153,None,,,,,,,,,,,,eliza,0,2025-08-25_13h52.38.631,tilt_mocs,2023.2.3,None,2025-08-25 13h52.47.998593 -0400,
4.694444444444445,15.0,p3,poss,100,,,,,,,,,0,161,161,268,221.51360629199917,,,,,,,,,,,,,,,,,,,,,,,,,,,,,,221.50456266700348,221.51360629199917,222.0059701249993,222.0059701249993,222.08603533299902,222.08603533299902,222.08603533299902,222.39665937500104,right,0.8816425840050215,None,222.39708475000225,222.3971255830038,None,,,,,,,,,,,,eliza,0,2025-08-25_13h52.38.631,tilt_mocs,2023.2.3,None,2025-08-25 13h52.47.998593 -0400,
-6.222222222222221,-15.0,m1,negs,100,,,,,,,,,0,162,162,386,222.40626804200292,,,,,,,,,,,,,,,,,,,,,,,,,,,,,,222.39746366700274,222.40626804200292,222.90626641699782,222.90626641699782,222.97836766700493,222.98526924999896,222.98526924999896,223.22039883300022,right,0.8108921249950072,None,223.22081929200067,223.2208655420036,None,,,,,,,,,,,,eliza,0,2025-08-25_13h52.38.631,tilt_mocs,2023.2.3,None,2025-08-25 13h52.47.998593 -0400,
4.694444444444445,15.0,p3,poss,100,,,,,,,,,0,163,163,269,223.2302364999996,,,,,,,,,,,,,,,,,,,,,,,,,,,,,,223.22129387500172,223.2302364999996,223.72206929200183,223.72206929200183,223.8027627920019,223.8027627920019,223.8027627920019,224.180169457999,right,0.9403135840038885,None,224.1805973330047,224.1806423329981,None,,,,,,,,,,,,eliza,0,2025-08-25_13h52.38.631,tilt_mocs,2023.2.3,None,2025-08-25 13h52.47.998593 -0400,
4.694444444444445,15.0,p3,poss,100,,,,,,,,,0,164,164,256,224.19007675000466,,,,,,,,,,,,,,,,,,,,,,,,,,,,,,224.1810749580036,224.19007675000466,224.68939050000336,224.68939050000336,224.76177295800153,224.76880704200448,224.76880704200448,225.05357808300323,right,0.8569279580042348,None,225.05401074999827,225.05405900000187,None,,,,,,,,,,,,eliza,0,2025-08-25_13h52.38.631,tilt_mocs,2023.2.3,None,2025-08-25 13h52.47.998593 -0400,
-5.222222222222221,-15.0,p1,negs,100,,,,,,,,,0,165,165,444,225.06364766700426,,,,,,,,,,,,,,,,,,,,,,,,,,,,,,225.05447783300042,225.06364766700426,225.5556509579983,225.5556509579983,225.63657716700254,225.63657716700254,225.63657716700254,225.96307337500184,right,0.8952063749966328,None,225.96349349999946,225.96353991700016,None,,,,,,,,,,,,eliza,0,2025-08-25_13h52.38.631,tilt_mocs,2023.2.3,None,2025-08-25 13h52.47.998593 -0400,
-5.222222222222221,-15.0,p1,negs,100,,,,,,,,,0,166,166,470,225.97321512499911,,,,,,,,,,,,,,,,,,,,,,,,,,,,,,225.96394449999934,225.97321512499911,226.4723792500008,226.4723792500008,226.54511374999856,226.55205262500385,226.55205262500385,226.81981479200476,right,0.8415669580062968,None,226.82024304199876,226.82028845800232,None,,,,,,,,,,,,eliza,0,2025-08-25_13h52.38.631,tilt_mocs,2023.2.3,None,2025-08-25 13h52.47.998593 -0400,
3.6944444444444446,15.0,p1,poss,100,,,,,,,,,0,167,167,182,226.83030229200085,,,,,,,,,,,,,,,,,,,,,,,,,,,,,,226.8207016669985,226.83030229200085,227.32309604200418,227.32309604200418,227.40287470800104,227.40287470800104,227.40287470800104,227.68613858299796,right,0.8542532909996225,None,227.6864875829997,227.6865265000015,None,,,,,,,,,,,,eliza,0,2025-08-25_13h52.38.631,tilt_mocs,2023.2.3,None,2025-08-25 13h52.47.998593 -0400,
4.194444444444445,15.0,p2,poss,100,,,,,,,,,0,168,168,212,227.69565770799818,,,,,,,,,,,,,,,,,,,,,,,,,,,,,,227.68685845800064,227.69565770799818,228.1911124170001,228.1911124170001,228.2703423330022,228.2703423330022,228.2703423330022,228.49629475000256,right,0.7914162500019302,None,228.49664862500504,228.496687208004,None,,,,,,,,,,,,eliza,0,2025-08-25_13h52.38.631,tilt_mocs,2023.2.3,None,2025-08-25 13h52.47.998593 -0400,
-4.222222222222221,-15.0,p3,negs,100,,,,,,,,,0,169,169,541,228.5062312500013,,,,,,,,,,,,,,,,,,,,,,,,,,,,,,228.4970401669998,228.5062312500013,229.00656033300038,229.00656033300038,229.07847100000072,229.0853759169986,229.0853759169986,229.30340937500296,right,0.7894722499986528,None,229.30383395800163,229.303880958003,None,,,,,,,,,,,,eliza,0,2025-08-25_13h52.38.631,tilt_mocs,2023.2.3,None,2025-08-25 13h52.47.998593 -0400,
-1.3611111111111114,0.0,PSE,noss,0,,,,,,,,,0,170,170,626,229.3137405419984,,,,,,,,,,,,,,,,,,,,,,,,,,,,,,229.30429104200448,229.3137405419984,229.80533795800147,229.80533795800147,229.88653124999837,229.88653124999837,229.88653124999837,230.13096816700272,right,0.8158636250009295,None,230.1313890829988,230.13143633300206,None,,,,,,,,,,,,eliza,0,2025-08-25_13h52.38.631,tilt_mocs,2023.2.3,None,2025-08-25 13h52.47.998593 -0400,
2.1944444444444446,15.0,m2,poss,100,,,,,,,,,0,171,171,79,230.14073745800124,,,,,,,,,,,,,,,,,,,,,,,,,,,,,,230.1318342500017,230.14073745800124,230.6394647920024,230.6394647920024,230.71182312499877,230.71880308300024,230.71880308300024,230.99621350000234,right,0.8495725840039086,None,230.99657408300118,230.99662016700313,None,,,,,,,,,,,,eliza,0,2025-08-25_13h52.38.631,tilt_mocs,2023.2.3,None,2025-08-25 13h52.47.998593 -0400,
2.6944444444444446,15.0,m1,poss,100,,,,,,,,,0,172,172,109,231.00621658300224,,,,,,,,,,,,,,,,,,,,,,,,,,,,,,230.99703345799935,231.00621658300224,231.50606829200115,231.50606829200115,231.58713066700147,231.58713066700147,231.58713066700147,231.9199262500042,right,0.911876291000226,None,231.92033883299882,231.9203838750036,None,,,,,,,,,,,,eliza,0,2025-08-25_13h52.38.631,tilt_mocs,2023.2.3,None,2025-08-25 13h52.47.998593 -0400,
-7.222222222222221,-15.0,m3,negs,100,,,,,,,,,0,173,173,296,231.94530262500484,,,,,,,,,,,,,,,,,,,,,,,,,,,,,,231.92079124999873,231.94530262500484,232.42206091700064,232.42206091700064,232.50337416700495,232.50337416700495,232.50337416700495,232.71986741699948,right,0.7724874159976025,None,232.72028295799828,232.7203300830006,None,,,,,,,,,,,,eliza,0,2025-08-25_13h52.38.631,tilt_mocs,2023.2.3,None,2025-08-25 13h52.47.998593 -0400,
-0.3611111111111114,0.0,p2,noss,0,,,,,,,,,0,174,174,677,232.74546070799988,,,,,,,,,,,,,,,,,,,,,,,,,,,,,,232.72073695799918,232.74546070799988,233.22258591699938,233.22258591699938,233.30237254199892,233.30237254199892,233.30237254199892,233.70352266700502,right,0.9548103330016602,None,233.7039442919995,233.70399349999934,None,,,,,,,,,,,,eliza,0,2025-08-25_13h52.38.631,tilt_mocs,2023.2.3,None,2025-08-25 13h52.47.998593 -0400,
3.6944444444444446,15.0,p1,poss,100,,,,,,,,,0,175,175,161,233.71393425000133,,,,,,,,,,,,,,,,,,,,,,,,,,,,,,233.70440045800206,233.71393425000133,234.20705525000085,234.20705525000085,234.286025333,234.286025333,234.286025333,234.59659487500176,right,0.8726517499962938,None,234.59700858300494,234.5970527919999,None,,,,,,,,,,,,eliza,0,2025-08-25_13h52.38.631,tilt_mocs,2023.2.3,None,2025-08-25 13h52.47.998593 -0400,
-1.3611111111111114,0.0,PSE,noss,0,,,,,,,,,0,176,176,622,234.60621304200322,,,,,,,,,,,,,,,,,,,,,,,,,,,,,,234.59745275000023,234.60621304200322,235.10598174999905,235.10598174999905,235.17852170800325,235.18549041700317,235.18549041700317,235.53653912500158,right,0.9275069590003113,None,235.53689266699803,235.53693112500332,None,,,,,,,,,,,,eliza,0,2025-08-25_13h52.38.631,tilt_mocs,2023.2.3,None,2025-08-25 13h52.47.998593 -0400,
-4.722222222222221,-15.0,p2,negs,100,,,,,,,,,0,177,177,513,235.54595095800323,,,,,,,,,,,,,,,,,,,,,,,,,,,,,,235.53726050000114,235.54595095800323,236.03985712500435,236.03985712500435,236.11991616700107,236.11991616700107,236.11991616700107,236.5132684170021,right,0.9580254579996108,None,236.51367991699954,236.513724000004,None,,,,,,,,,,,,eliza,0,2025-08-25_13h52.38.631,tilt_mocs,2023.2.3,None,2025-08-25 13h52.47.998593 -0400,
4.694444444444445,15.0,p3,poss,100,,,,,,,,,0,178,178,257,236.52292112500436,,,,,,,,,,,,,,,,,,,,,,,,,,,,,,236.51412737500505,236.52292112500436,237.02378362500167,237.02378362500167,237.09517266700277,237.10199958299927,237.10199958299927,237.49651937500312,right,0.9659563329987577,None,237.49694050000107,237.49698750000243,None,,,,,,,,,,,,eliza,0,2025-08-25_13h52.38.631,tilt_mocs,2023.2.3,None,2025-08-25 13h52.47.998593 -0400,
-6.222222222222221,-15.0,m1,negs,100,,,,,,,,,0,179,179,399,237.50687625000137,,,,,,,,,,,,,,,,,,,,,,,,,,,,,,237.49740083300276,237.50687625000137,238.00668337500247,238.00668337500247,238.07863124999858,238.0855528750035,238.0855528750035,238.48004225000477,right,0.967609999999695,None,238.48045775000355,238.48050429199793,None,,,,,,,,,,,,eliza,0,2025-08-25_13h52.38.631,tilt_mocs,2023.2.3,None,2025-08-25 13h52.47.998593 -0400,
3.1944444444444446,15.0,PSE,poss,100,,,,,,,,,0,180,180,138,238.48966591700446,,,,,,,,,,,,,,,,,,,,,,,,,,,,,,238.48091941700113,238.48966591700446,238.9900456250034,238.9900456250034,239.0618929580014,239.06888725000317,239.06888725000317,239.46336583299853,right,0.9663764580036514,None,239.4637894999978,239.46383695799886,None,,,,,,,,,,,,eliza,0,2025-08-25_13h52.38.631,tilt_mocs,2023.2.3,None,2025-08-25 13h52.47.998593 -0400,
3.6944444444444446,15.0,p1,poss,100,,,,,,,,,0,181,181,192,239.47360458299954,,,,,,,,,,,,,,,,,,,,,,,,,,,,,,239.46425295800145,239.47360458299954,239.97334395800135,239.97334395800135,240.04533362499933,240.0518525830048,240.0518525830048,240.6135878749992,right,1.1312596249990747,None,240.61400983299973,240.61405654199916,None,,,,,,,,,,,,eliza,0,2025-08-25_13h52.38.631,tilt_mocs,2023.2.3,None,2025-08-25 13h52.47.998593 -0400,
2.6944444444444446,15.0,m1,poss,100,,,,,,,,,0,182,182,114,240.6234381250033,,,,,,,,,,,,,,,,,,,,,,,,,,,,,,240.61445670800458,240.6234381250033,241.1227752920022,241.1227752920022,241.1943012920019,241.2012153750038,241.2012153750038,241.59636008300004,right,0.9637790420019883,None,241.59670445800293,241.59673979200306,None,,,,,,,,,,,,eliza,0,2025-08-25_13h52.38.631,tilt_mocs,2023.2.3,None,2025-08-25 13h52.47.998593 -0400,
-5.222222222222221,-15.0,p1,negs,100,,,,,,,,,0,183,183,472,241.60591941700113,,,,,,,,,,,,,,,,,,,,,,,,,,,,,,241.59708200000023,241.60591941700113,242.1062700420007,242.1062700420007,242.18649166700197,242.18649166700197,242.18649166700197,242.55311579200497,right,0.9444287500009523,None,242.55348154200328,242.55351741699997,None,,,,,,,,,,,,eliza,0,2025-08-25_13h52.38.631,tilt_mocs,2023.2.3,None,2025-08-25 13h52.47.998593 -0400,
4.694444444444445,15.0,p3,poss,100,,,,,,,,,0,184,184,251,242.56226116700418,,,,,,,,,,,,,,,,,,,,,,,,,,,,,,242.55385224999918,242.56226116700418,243.05689641700155,243.05689641700155,243.13569850000204,243.13569850000204,243.13569850000204,243.53015454200067,right,0.96016887499718,None,243.5305801670038,243.53062387499813,None,,,,,,,,,,,,eliza,0,2025-08-25_13h52.38.631,tilt_mocs,2023.2.3,None,2025-08-25 13h52.47.998593 -0400,
1.6944444444444446,15.0,m3,poss,100,,,,,,,,,0,185,185,12,243.54031787499844,,,,,,,,,,,,,,,,,,,,,,,,,,,,,,243.5310293750008,243.54031787499844,244.0413058330014,244.0413058330014,244.1119929580018,244.11894987500273,244.11894987500273,244.76299791700148,right,1.2139285000012023,None,244.7633472919988,244.7633848330006,None,,,,,,,,,,,,eliza,0,2025-08-25_13h52.38.631,tilt_mocs,2023.2.3,None,2025-08-25 13h52.47.998593 -0400,
-0.3611111111111114,0.0,p2,noss,0,,,,,,,,,0,186,186,665,244.77241341699846,,,,,,,,,,,,,,,,,,,,,,,,,,,,,,244.76371300000028,244.77241341699846,245.27269383300154,245.27269383300154,245.34525912500249,245.35227279199898,245.35227279199898,245.71323691699945,right,0.9317396250044112,None,245.7136662499979,245.7137126250018,None,,,,,,,,,,,,eliza,0,2025-08-25_13h52.38.631,tilt_mocs,2023.2.3,None,2025-08-25 13h52.47.998593 -0400,
3.6944444444444446,15.0,p1,poss,100,,,,,,,,,0,187,187,166,245.72335233299964,,,,,,,,,,,,,,,,,,,,,,,,,,,,,,245.71414191700023,245.72335233299964,246.22387170800357,246.22387170800357,246.29532616700453,246.3021950830007,246.3021950830007,246.63013512500038,right,0.9014129580027657,None,246.63055812499806,246.63060479200067,None,,,,,,,,,,,,eliza,0,2025-08-25_13h52.38.631,tilt_mocs,2023.2.3,None,2025-08-25 13h52.47.998593 -0400,
2.6944444444444446,15.0,m1,poss,100,,,,,,,,,0,188,188,99,246.64028012500057,,,,,,,,,,,,,,,,,,,,,,,,,,,,,,246.63102529200114,246.64028012500057,247.14057175000198,247.14057175000198,247.21201058300358,247.219061667005,247.219061667005,247.54707962500106,right,0.9053952499962179,None,247.54750395799783,247.54755037499854,None,,,,,,,,,,,,eliza,0,2025-08-25_13h52.38.631,tilt_mocs,2023.2.3,None,2025-08-25 13h52.47.998593 -0400,
-4.222222222222221,-15.0,p3,negs,100,,,,,,,,,0,189,189,552,247.55742208300217,,,,,,,,,,,,,,,,,,,,,,,,,,,,,,247.5479481670045,247.55742208300217,248.05747100000008,248.05747100000008,248.12872858300398,248.13584025000455,248.13584025000455,248.50356550000288,right,0.9416243329978897,None,248.50398049999785,248.5040242920004,None,,,,,,,,,,,,eliza,0,2025-08-25_13h52.38.631,tilt_mocs,2023.2.3,None,2025-08-25 13h52.47.998593 -0400,
-0.8611111111111114,0.0,p1,noss,0,,,,,,,,,0,190,190,647,248.52899241699924,,,,,,,,,,,,,,,,,,,,,,,,,,,,,,248.5044257920017,248.52899241699924,249.00738320800156,249.00738320800156,249.08639570800005,249.08639570800005,249.08639570800005,249.46316233299876,right,0.9277872079983354,None,249.46358491700084,249.4636325829997,None,,,,,,,,,,,,eliza,0,2025-08-25_13h52.38.631,tilt_mocs,2023.2.3,None,2025-08-25 13h52.47.998593 -0400,
2.6944444444444446,15.0,m1,poss,100,,,,,,,,,0,191,191,115,249.47302112499892,,,,,,,,,,,,,,,,,,,,,,,,,,,,,,249.46406933300023,249.47302112499892,249.97300712500146,249.97300712500146,250.04465266699845,250.05117983300443,250.05117983300443,250.38038508300087,right,0.9057962910010247,None,250.3808086249992,250.3808560000034,None,,,,,,,,,,,,eliza,0,2025-08-25_13h52.38.631,tilt_mocs,2023.2.3,None,2025-08-25 13h52.47.998593 -0400,
-1.8611111111111116,0.0,m1,noss,0,,,,,,,,,0,192,192,607,250.3902144579988,,,,,,,,,,,,,,,,,,,,,,,,,,,,,,250.38125412500085,250.3902144579988,250.8892400830009,250.8892400830009,250.96201754199865,250.96895116700034,250.96895116700034,251.3301183750009,right,0.9355771250047837,None,251.3304675420004,251.33050795800227,None,,,,,,,,,,,,eliza,0,2025-08-25_13h52.38.631,tilt_mocs,2023.2.3,None,2025-08-25 13h52.47.998593 -0400,
-1.3611111111111114,0.0,PSE,noss,0,,,,,,,,,0,193,193,637,251.33950833300332,,,,,,,,,,,,,,,,,,,,,,,,,,,,,,251.33083604199783,251.33950833300332,251.83914387500408,251.83914387500408,251.91202812499978,251.91916541699902,251.91916541699902,252.2700007079984,right,0.9256200000017998,None,252.27035504200467,252.2703937500046,None,,,,,,,,,,,,eliza,0,2025-08-25_13h52.38.631,tilt_mocs,2023.2.3,None,2025-08-25 13h52.47.998593 -0400,
-6.222222222222221,-15.0,m1,negs,100,,,,,,,,,0,194,194,361,252.27975850000075,,,,,,,,,,,,,,,,,,,,,,,,,,,,,,252.27074795799854,252.27975850000075,252.7729630419999,252.7729630419999,252.85239054200065,252.85239054200065,252.85239054200065,253.40305895799975,left,1.1189909999957308,None,253.4035069169986,253.40355687500414,None,,,,,,,,,,,,eliza,0,2025-08-25_13h52.38.631,tilt_mocs,2023.2.3,None,2025-08-25 13h52.47.998593 -0400,
-0.1388888888888886,0.0,p3,noss,0,,,,,,,,,0,195,195,686,253.41246045799926,,,,,,,,,,,,,,,,,,,,,,,,,,,,,,253.40397262500483,253.41246045799926,253.90586512500158,253.90586512500158,253.98606575000304,253.98606575000304,253.98606575000304,254.49731212500046,right,1.076097999997728,None,254.49777729200287,254.49782637500175,None,,,,,,,,,,,,eliza,0,2025-08-25_13h52.38.631,tilt_mocs,2023.2.3,None,2025-08-25 13h52.47.998593 -0400,
-6.222222222222221,-15.0,m1,negs,100,,,,,,,,,0,196,196,398,254.50738925000041,,,,,,,,,,,,,,,,,,,,,,,,,,,,,,254.498276833001,254.50738925000041,255.0073375830034,255.0073375830034,255.07834387500043,255.08510979200219,255.08510979200219,255.56992987500416,left,1.060972999999649,None,255.57027779200143,255.57031629200355,None,,,,,,,,,,,,eliza,0,2025-08-25_13h52.38.631,tilt_mocs,2023.2.3,None,2025-08-25 13h52.47.998593 -0400,
1.6944444444444446,15.0,m3,poss,100,,,,,,,,,0,197,197,14,255.57909520799876,,,,,,,,,,,,,,,,,,,,,,,,,,,,,,255.57065583299845,255.57909520799876,256.07296429200505,256.07296429200505,256.1537833330003,256.1537833330003,256.1537833330003,257.17047741699935,right,1.5900549580037477,None,257.17082883300463,257.1708667499988,None,,,,,,,,,,,,eliza,0,2025-08-25_13h52.38.631,tilt_mocs,2023.2.3,None,2025-08-25 13h52.47.998593 -0400,
2.6944444444444446,15.0,m1,poss,100,,,,,,,,,0,198,198,85,257.19559579199995,,,,,,,,,,,,,,,,,,,,,,,,,,,,,,257.1711942080001,257.19559579199995,257.67281333300343,257.67281333300343,257.75252125000407,257.75252125000407,257.75252125000407,258.2642591250042,right,1.0672637919997214,None,258.2646789999999,258.26472537500376,None,,,,,,,,,,,,eliza,0,2025-08-25_13h52.38.631,tilt_mocs,2023.2.3,None,2025-08-25 13h52.47.998593 -0400,
4.194444444444445,15.0,p2,poss,100,,,,,,,,,0,199,199,221,258.27434625000024,,,,,,,,,,,,,,,,,,,,,,,,,,,,,,258.26512816700415,258.27434625000024,258.7730499169993,258.7730499169993,258.844638458002,258.85133566700097,258.85133566700097,259.3971758750049,right,1.1216710829976364,None,259.3975206670002,259.3975565830042,None,,,,,,,,,,,,eliza,0,2025-08-25_13h52.38.631,tilt_mocs,2023.2.3,None,2025-08-25 13h52.47.998593 -0400,
1.6944444444444446,15.0,m3,poss,100,,,,,,,,,0,200,200,21,259.4065558750008,,,,,,,,,,,,,,,,,,,,,,,,,,,,,,259.3978833750007,259.4065558750008,259.9060388750004,259.9060388750004,259.9788126670028,259.98586262499884,259.98586262499884,260.92978445799963,left,1.5156544999990729,None,260.93013249999785,260.93017045799934,None,,,,,,,,,,,,eliza,0,2025-08-25_13h52.38.631,tilt_mocs,2023.2.3,None,2025-08-25 13h52.47.998593 -0400,
-4.722222222222221,-15.0,p2,negs,100,,,,,,,,,0,201,201,497,260.93925016700086,,,,,,,,,,,,,,,,,,,,,,,,,,,,,,260.93053712500114,260.93925016700086,261.4394563750029,261.4394563750029,261.51214854200225,261.51913741700264,261.51913741700264,262.4472447080043,right,1.4997067919975962,None,262.4476678330029,262.44771295800456,None,,,,,,,,,,,,eliza,0,2025-08-25_13h52.38.631,tilt_mocs,2023.2.3,None,2025-08-25 13h52.47.998593 -0400,
-5.722222222222221,-15.0,PSE,negs,100,,,,,,,,,0,202,202,438,262.45691266700305,,,,,,,,,,,,,,,,,,,,,,,,,,,,,,262.448111042002,262.45691266700305,262.9565049579978,262.9565049579978,263.02880749999895,263.03589650000504,263.03589650000504,263.82020637499954,left,1.3589578329992946,None,263.82055758299975,263.8205963750006,None,,,,,,,,,,,,eliza,0,2025-08-25_13h52.38.631,tilt_mocs,2023.2.3,None,2025-08-25 13h52.47.998593 -0400,
3.6944444444444446,15.0,p1,poss,100,,,,,,,,,0,203,203,177,263.8295435830005,,,,,,,,,,,,,,,,,,,,,,,,,,,,,,263.82093587500276,263.8295435830005,264.323101957998,264.323101957998,264.403945500002,264.403945500002,264.403945500002,265.06432629199844,right,1.2333846249966882,None,265.0647554169991,265.06480262499826,None,,,,,,,,,,,,eliza,0,2025-08-25_13h52.38.631,tilt_mocs,2023.2.3,None,2025-08-25 13h52.47.998593 -0400,
-6.222222222222221,-15.0,m1,negs,100,,,,,,,,,0,204,204,396,265.07440362500347,,,,,,,,,,,,,,,,,,,,,,,,,,,,,,265.065206416999,265.07440362500347,265.5737824579992,265.5737824579992,265.6533500420046,265.6533500420046,265.6533500420046,266.99724704200344,left,1.9134442909999052,None,266.9976087920004,266.9976484170038,None,,,,,,,,,,,,eliza,0,2025-08-25_13h52.38.631,tilt_mocs,2023.2.3,None,2025-08-25 13h52.47.998593 -0400,
-0.8611111111111114,0.0,p1,noss,0,,,,,,,,,0,205,205,654,267.00679095800297,,,,,,,,,,,,,,,,,,,,,,,,,,,,,,266.99800150000374,267.00679095800297,267.5068154170003,267.5068154170003,267.58766304200253,267.58766304200253,267.58766304200253,268.03033987500385,left,1.0141165419991012,None,268.030766625001,268.03081158300483,None,,,,,,,,,,,,eliza,0,2025-08-25_13h52.38.631,tilt_mocs,2023.2.3,None,2025-08-25 13h52.47.998593 -0400,
-6.722222222222221,-15.0,m2,negs,100,,,,,,,,,0,206,206,350,268.0399964169992,,,,,,,,,,,,,,,,,,,,,,,,,,,,,,268.03119987500395,268.0399964169992,268.5398597500025,268.5398597500025,268.61225212499994,268.6191488330005,268.6191488330005,269.0871939170029,left,1.0439492500008782,None,269.08762625000236,269.0876747500006,None,,,,,,,,,,,,eliza,0,2025-08-25_13h52.38.631,tilt_mocs,2023.2.3,None,2025-08-25 13h52.47.998593 -0400,
-6.222222222222221,-15.0,m1,negs,100,,,,,,,,,0,207,207,372,269.1125604170011,,,,,,,,,,,,,,,,,,,,,,,,,,,,,,269.0880828330046,269.1125604170011,269.5903405420031,269.5903405420031,269.66942612500134,269.66942612500134,269.66942612500134,270.14658525000414,left,1.0250792920051026,None,270.14693758299836,270.1469760830005,None,,,,,,,,,,,,eliza,0,2025-08-25_13h52.38.631,tilt_mocs,2023.2.3,None,2025-08-25 13h52.47.998593 -0400,
-6.222222222222221,-15.0,m1,negs,100,,,,,,,,,0,208,208,393,270.15603974999976,,,,,,,,,,,,,,,,,,,,,,,,,,,,,,270.14732675000414,270.15603974999976,270.65624712499994,270.65624712499994,270.72890358300356,270.73576162500103,270.73576162500103,271.230356125001,left,1.0643457909973222,None,271.23076800000126,271.2308161250039,None,,,,,,,,,,,,eliza,0,2025-08-25_13h52.38.631,tilt_mocs,2023.2.3,None,2025-08-25 13h52.47.998593 -0400,
-5.722222222222221,-15.0,PSE,negs,100,,,,,,,,,0,209,209,402,271.2411476670022,,,,,,,,,,,,,,,,,,,,,,,,,,,,,,271.2312237080041,271.2411476670022,271.74029229200096,271.74029229200096,271.81228016700334,271.81940150000446,271.81940150000446,272.1040314999991,left,0.8586139580002055,None,272.1044649579999,272.1045125829987,None,,,,,,,,,,,,eliza,0,2025-08-25_13h52.38.631,tilt_mocs,2023.2.3,None,2025-08-25 13h52.47.998593 -0400,
2.6944444444444446,15.0,m1,poss,100,,,,,,,,,0,210,210,98,272.11419645800197,,,,,,,,,,,,,,,,,,,,,,,,,,,,,,272.10491729200294,272.11419645800197,272.6074482080003,272.6074482080003,272.6870498749995,272.6870498749995,272.6870498749995,273.23687029199937,right,1.1196693749952829,None,273.23722212500434,273.2372613750049,None,,,,,,,,,,,,eliza,0,2025-08-25_13h52.38.631,tilt_mocs,2023.2.3,None,2025-08-25 13h52.47.998593 -0400,
-4.722222222222221,-15.0,p2,negs,100,,,,,,,,,0,211,211,506,273.2463021250005,,,,,,,,,,,,,,,,,,,,,,,,,,,,,,273.2375930420021,273.2463021250005,273.7405960420001,273.7405960420001,273.81932779199997,273.81932779199997,273.81932779199997,275.31390441700205,right,2.0634742499969434,None,275.3143207500034,275.31436525000026,None,,,,,,,,,,,,eliza,0,2025-08-25_13h52.38.631,tilt_mocs,2023.2.3,None,2025-08-25 13h52.47.998593 -0400,
-5.222222222222221,-15.0,p1,negs,100,,,,,,,,,0,212,212,454,275.3236881670018,,,,,,,,,,,,,,,,,,,,,,,,,,,,,,275.31478670800425,275.3236881670018,275.8234131670033,275.8234131670033,275.8949550000034,275.90158345799864,275.90158345799864,276.26472783300414,right,0.9396479589995579,None,276.2651505000031,276.2651987080026,None,,,,,,,,,,,,eliza,0,2025-08-25_13h52.38.631,tilt_mocs,2023.2.3,None,2025-08-25 13h52.47.998593 -0400,
-6.222222222222221,-15.0,m1,negs,100,,,,,,,,,0,213,213,362,276.27435425000294,,,,,,,,,,,,,,,,,,,,,,,,,,,,,,276.26560258300015,276.27435425000294,276.7731716670023,276.7731716670023,276.84576712499984,276.8531262500037,276.8531262500037,277.3702961250019,left,1.0919950409952435,None,277.3707176250027,277.3707578329995,None,,,,,,,,,,,,eliza,0,2025-08-25_13h52.38.631,tilt_mocs,2023.2.3,None,2025-08-25 13h52.47.998593 -0400,
4.694444444444445,15.0,p3,poss,100,,,,,,,,,0,214,214,244,277.3800177919984,,,,,,,,,,,,,,,,,,,,,,,,,,,,,,277.3710977919982,277.3800177919984,277.87327966700104,277.87327966700104,277.95330366700364,277.95330366700364,277.95330366700364,278.5311235830013,right,1.1496903329971246,None,278.53152874999796,278.5315682500004,None,,,,,,,,,,,,eliza,0,2025-08-25_13h52.38.631,tilt_mocs,2023.2.3,None,2025-08-25 13h52.47.998593 -0400,
3.1944444444444446,15.0,PSE,poss,100,,,,,,,,,0,215,215,120,278.5405303330044,,,,,,,,,,,,,,,,,,,,,,,,,,,,,,278.53190270800405,278.5405303330044,279.04015529200115,279.04015529200115,279.1203320420027,279.1203320420027,279.1203320420027,279.6471485420043,right,1.101643083995441,None,279.6475759579989,279.64762016700115,None,,,,,,,,,,,,eliza,0,2025-08-25_13h52.38.631,tilt_mocs,2023.2.3,None,2025-08-25 13h52.47.998593 -0400,
-1.3611111111111114,0.0,PSE,noss,0,,,,,,,,,0,216,216,624,279.65690862500196,,,,,,,,,,,,,,,,,,,,,,,,,,,,,,279.64802116699866,279.65690862500196,280.15625037500286,280.15625037500286,280.2290219170027,280.2356550420009,280.2356550420009,280.5804329169987,right,0.9221503750013653,None,280.5808505829991,280.5808976670014,None,,,,,,,,,,,,eliza,0,2025-08-25_13h52.38.631,tilt_mocs,2023.2.3,None,2025-08-25 13h52.47.998593 -0400,
1.6944444444444446,15.0,m3,poss,100,,,,,,,,,0,217,217,33,280.5909001250038,,,,,,,,,,,,,,,,,,,,,,,,,,,,,,280.58129991700116,280.5909001250038,281.0906252920031,281.0906252920031,281.1617422499985,281.16870287500205,281.16870287500205,281.6470463750011,right,1.0467947090000962,None,281.6474607920027,281.64750774999993,None,,,,,,,,,,,,eliza,0,2025-08-25_13h52.38.631,tilt_mocs,2023.2.3,None,2025-08-25 13h52.47.998593 -0400,
-6.222222222222221,-15.0,m1,negs,100,,,,,,,,,0,218,218,383,281.6570838330008,,,,,,,,,,,,,,,,,,,,,,,,,,,,,,281.6479123750032,281.6570838330008,282.15712758299924,282.15712758299924,282.22905912499846,282.2361630000014,282.2361630000014,282.5306140419998,right,0.8693585420041927,None,282.53103741700033,282.5310814580007,None,,,,,,,,,,,,eliza,0,2025-08-25_13h52.38.631,tilt_mocs,2023.2.3,None,2025-08-25 13h52.47.998593 -0400,
3.1944444444444446,15.0,PSE,poss,100,,,,,,,,,0,219,219,154,282.5405145420009,,,,,,,,,,,,,,,,,,,,,,,,,,,,,,282.531481375001,282.5405145420009,283.04074983300234,283.04074983300234,283.1123704999991,283.1194201670005,283.1194201670005,283.48016391700367,right,0.9324462090007728,None,283.48057970800437,283.48062624999875,None,,,,,,,,,,,,eliza,0,2025-08-25_13h52.38.631,tilt_mocs,2023.2.3,None,2025-08-25 13h52.47.998593 -0400,
-6.722222222222221,-15.0,m2,negs,100,,,,,,,,,0,220,220,334,283.489820625,,,,,,,,,,,,,,,,,,,,,,,,,,,,,,283.48102729200036,283.489820625,283.991098874998,283.991098874998,284.06232429200463,284.0694435000041,284.0694435000041,284.5306197500031,left,1.038741458003642,None,284.5310368330029,284.53108429200074,None,,,,,,,,,,,,eliza,0,2025-08-25_13h52.38.631,tilt_mocs,2023.2.3,None,2025-08-25 13h52.47.998593 -0400,
3.6944444444444446,15.0,p1,poss,100,,,,,,,,,0,221,221,183,284.5401827500027,,,,,,,,,,,,,,,,,,,,,,,,,,,,,,284.5314749169993,284.5401827500027,285.0398724170009,285.0398724170009,285.1124119169981,285.11927883300086,285.11927883300086,285.680927166999,right,1.1327545829990413,None,285.6813520420037,285.6813999580045,None,,,,,,,,,,,,eliza,0,2025-08-25_13h52.38.631,tilt_mocs,2023.2.3,None,2025-08-25 13h52.47.998593 -0400,
2.6944444444444446,15.0,m1,poss,100,,,,,,,,,0,222,222,112,285.6904129169998,,,,,,,,,,,,,,,,,,,,,,,,,,,,,,285.68176495800435,285.6904129169998,286.1905050830028,286.1905050830028,286.2624429580028,286.2695653330011,286.2695653330011,286.8708892499999,right,1.1767309999995632,None,286.87124716700055,286.87128562499856,None,,,,,,,,,,,,eliza,0,2025-08-25_13h52.38.631,tilt_mocs,2023.2.3,None,2025-08-25 13h52.47.998593 -0400,
3.6944444444444446,15.0,p1,poss,100,,,,,,,,,0,223,223,175,286.8958399580006,,,,,,,,,,,,,,,,,,,,,,,,,,,,,,286.8716310000018,286.8958399580006,287.37357599999814,287.37357599999814,287.45415658300044,287.45415658300044,287.45415658300044,287.9199345829984,right,1.0194614590000128,None,287.9202930829997,287.92033249999804,None,,,,,,,,,,,,eliza,0,2025-08-25_13h52.38.631,tilt_mocs,2023.2.3,None,2025-08-25 13h52.47.998593 -0400,
-7.222222222222221,-15.0,m3,negs,100,,,,,,,,,0,224,224,319,287.9291602500016,,,,,,,,,,,,,,,,,,,,,,,,,,,,,,287.9206665419988,287.9291602500016,288.4234239580037,288.4234239580037,288.5042208750019,288.5042208750019,288.5042208750019,288.98680454200075,left,1.05573204200482,None,288.9872192500043,288.98726462500053,None,,,,,,,,,,,,eliza,0,2025-08-25_13h52.38.631,tilt_mocs,2023.2.3,None,2025-08-25 13h52.47.998593 -0400,
-6.722222222222221,-15.0,m2,negs,100,,,,,,,,,0,225,225,335,288.99627541700465,,,,,,,,,,,,,,,,,,,,,,,,,,,,,,288.9876254999981,288.99627541700465,289.4902350420016,289.4902350420016,289.5703666250047,289.5703666250047,289.5703666250047,290.27081491699937,left,1.2702607499959413,None,290.27123858300183,290.2712853330013,None,,,,,,,,,,,,eliza,0,2025-08-25_13h52.38.631,tilt_mocs,2023.2.3,None,2025-08-25 13h52.47.998593 -0400,
-6.222222222222221,-15.0,m1,negs,100,,,,,,,,,0,226,226,374,290.2960805420007,,,,,,,,,,,,,,,,,,,,,,,,,,,,,,290.27168920799886,290.2960805420007,290.7731909580034,290.7731909580034,290.8537403750015,290.8537403750015,290.8537403750015,291.29724541700125,left,0.9950457500017365,None,291.2975931250039,291.29763233300037,None,,,,,,,,,,,,eliza,0,2025-08-25_13h52.38.631,tilt_mocs,2023.2.3,None,2025-08-25 13h52.47.998593 -0400,
-7.222222222222221,-15.0,m3,negs,100,,,,,,,,,0,227,227,303,291.30666741700406,,,,,,,,,,,,,,,,,,,,,,,,,,,,,,291.2979715420006,291.30666741700406,291.8069503750012,291.8069503750012,291.87849562500196,291.88493949999975,291.88493949999975,292.32049233300495,left,1.0071295000016107,None,292.3208461250033,292.32088404200476,None,,,,,,,,,,,,eliza,0,2025-08-25_13h52.38.631,tilt_mocs,2023.2.3,None,2025-08-25 13h52.47.998593 -0400,
3.6944444444444446,15.0,p1,poss,100,,,,,,,,,0,228,228,179,292.3299193330022,,,,,,,,,,,,,,,,,,,,,,,,,,,,,,292.32122333300504,292.3299193330022,292.8228306250021,292.8228306250021,292.9036582500048,292.9036582500048,292.9036582500048,293.6967650830047,right,1.3590272920046118,None,293.69711837499926,293.69715637500485,None,,,,,,,,,,,,eliza,0,2025-08-25_13h52.38.631,tilt_mocs,2023.2.3,None,2025-08-25 13h52.47.998593 -0400,
