center,surround,correct,thisN,thisTrialN,thisRepN,key_resp_3.keys,key_resp_3.corr,key_resp_3.rt,key_resp_3.duration,key_resp_7.keys,key_resp_7.rt,key_resp_7.duration,key_resp_4.keys,key_resp_4.corr,key_resp_4.rt,key_resp_4.duration,practice_no_time.thisRepN,practice_no_time.thisTrialN,practice_no_time.thisN,practice_no_time.thisIndex,practice_timed.thisRepN,practice_timed.thisTrialN,practice_timed.thisN,practice_timed.thisIndex,thisRow.t,notes,instr.started,text_5.started,key_resp_2.started,instr.stopped,key_resp_2.keys,key_resp_2.rt,key_resp_2.duration,instr2.started,text_6.started,key_resp_6.started,instr2.stopped,key_resp_6.keys,key_resp_6.rt,key_resp_6.duration,practice_trial.started,key_resp_3.started,text_9.started,surround_practice.started,center_practice.started,text_9.stopped,surround_practice.stopped,center_practice.stopped,text_11.started,practice_trial.stopped,practice_no_time.key_resp_3.keys,practice_no_time.key_resp_3.corr,practice_no_time.key_resp_3.rt,practice_no_time.key_resp_3.duration,practice_feedback.started,text_7.started,key_resp_7.started,practice_feedback.stopped,practice_no_time.key_resp_7.keys,practice_no_time.key_resp_7.rt,practice_no_time.key_resp_7.duration,instr3.started,text_8.started,key_resp_5.started,instr3.stopped,key_resp_5.keys,key_resp_5.rt,key_resp_5.duration,practice_trial_timed.started,key_resp_4.started,text_10.started,surround_practice_2.started,center_practice_2.started,text_10.stopped,surround_practice_2.stopped,center_practice_2.stopped,text_12.started,practice_trial_timed.stopped,practice_timed.key_resp_4.keys,practice_timed.key_resp_4.corr,practice_timed.key_resp_4.rt,practice_timed.key_resp_4.duration,practice_timed.key_resp_7.keys,practice_timed.key_resp_7.rt,practice_timed.key_resp_7.duration,start_instr.started,text_13.started,key_resp_8.started,start_instr.stopped,key_resp_8.keys,key_resp_8.rt,key_resp_8.duration,trials.label,trials.nReps,trials.startVal,trials.maxVal,trials.minVal,trials.stepSizes,trials.stepType,trials.nUp,trials.nDown,trials.nReversals,trials.thisIndex,trials.thisRepN,trials.thisN,trials.direction,trials.stepSize,trials.intensity,trial.started,resp.started,text_2.started,surround_grating.started,center_grating.started,surround_grating.stopped,center_grating.stopped,text_3.started,text_2.stopped,trial.stopped,trials.response,end.started,text_4.started,key_resp.started,end.stopped,key_resp.keys,key_resp.rt,key_resp.duration,participant,session,date,expName,psychopyVersion,frameRate,expStart,
,,,,,,,,,,,,,,,,,,,,,,,,,,,0.017779167043045163,0.022013292065821588,0.022013292065821588,0.9193106250604615,space,0.86951420805417,None,,,,,,,,,,,,,,,,,,,,,,,,,,,,,,,,,,,,,,,,,,,,,,,,,,,,,,,,,,,,,,,,,,,,,,,,,,,,,,,,,,,,,,,,,,,,,,135349,001,2025-08-14_12h04.43.850,tilt_staircase,2024.2.4,None,2025-08-14 12h04.53.133179 -0700,
,,,,,,,,,,,,,,,,,,,,,,,,,,,,,,,,,,0.9193446669960395,0.9271872499957681,0.9271872499957681,1.2652546250028536,space,0.33633279195055366,None,,,,,,,,,,,,,,,,,,,,,,,,,,,,,,,,,,,,,,,,,,,,,,,,,,,,,,,,,,,,,,,,,,,,,,,,,,,,,,,,,,,,,,,135349,001,2025-08-14_12h04.43.850,tilt_staircase,2024.2.4,None,2025-08-14 12h04.53.133179 -0700,
30,0,right,0,0,0,right,1,2.0725697909947485,None,space,1.0004071249859408,None,,,,,0,0,0,0,,,,,1.2817637081025168,,,,,,,,,,,,,,,,1.27176141703967,1.2817637081025168,1.2817637081025168,1.7692838330985978,1.7692838330985978,1.774854417075403,2.763235542108305,2.763235542108305,2.763235542108305,3.3608793331077322,right,1,2.0725697909947485,None,3.364327250048518,3.4157910420326516,3.4157910420326516,4.4179129170952365,space,1.0004071249859408,None,,,,,,,,,,,,,,,,,,,,,,,,,,,,,,,,,,,,,,,,,,,,,,,,,,,,,,,,,,,,,,,,,,135349,001,2025-08-14_12h04.43.850,tilt_staircase,2024.2.4,None,2025-08-14 12h04.53.133179 -0700,
-30,0,left,1,1,0,left,1,2.025288417004049,None,space,0.5063022499671206,None,,,,,0,1,1,1,,,,,4.424989958060905,,,,,,,,,,,,,,,,4.418222708045505,4.424989958060905,4.424989958060905,4.913334792014211,4.913334792014211,4.913334792014211,5.908475375035778,5.908475375035778,5.913546500029042,6.4608571249991655,left,1,2.025288417004049,None,6.460907292086631,6.464472083025612,6.464472083025612,6.977602667058818,space,0.5063022499671206,None,,,,,,,,,,,,,,,,,,,,,,,,,,,,,,,,,,,,,,,,,,,,,,,,,,,,,,,,,,,,,,,,,,135349,001,2025-08-14_12h04.43.850,tilt_staircase,2024.2.4,None,2025-08-14 12h04.53.133179 -0700,
30,60,right,2,2,0,right,1,1.4636119999922812,None,space,0.39657387509942055,None,,,,,0,2,2,2,,,,,6.982076625106856,,,,,,,,,,,,,,,,6.977784000104293,6.982076625106856,6.982076625106856,7.475027542095631,7.475027542095631,7.479848917108029,,,,8.449048250098713,right,1,1.4636119999922812,None,8.449103417107835,8.458289292058907,8.458289292058907,8.861079583060928,space,0.39657387509942055,None,,,,,,,,,,,,,,,,,,,,,,,,,,,,,,,,,,,,,,,,,,,,,,,,,,,,,,,,,,,,,,,,,,135349,001,2025-08-14_12h04.43.850,tilt_staircase,2024.2.4,None,2025-08-14 12h04.53.133179 -0700,
-30,-60,left,3,3,0,left,1,2.1348109589889646,None,space,0.631461999961175,None,,,,,0,3,3,3,,,,,8.86548441706691,,,,,,,,,,,,,,,,8.861280625103973,8.86548441706691,8.86548441706691,9.358290250063874,9.358290250063874,9.362893917015754,10.34632450004574,10.34632450004574,10.358183625037782,11.011499000014737,left,1,2.1348109589889646,None,11.011563583044335,11.015639499993995,11.015639499993995,11.648932042066008,space,0.631461999961175,None,,,,,,,,,,,,,,,,,,,,,,,,,,,,,,,,,,,,,,,,,,,,,,,,,,,,,,,,,,,,,,,,,,135349,001,2025-08-14_12h04.43.850,tilt_staircase,2024.2.4,None,2025-08-14 12h04.53.133179 -0700,
,,,,,,,,,,,,,,,,,,,,,,,,,,,,,,,,,,,,,,,,,,,,,,,,,,,,,,,,,,,,,,11.649020583019592,11.658345708041452,11.658345708041452,13.365387917030603,space,1.7059887080686167,None,,,,,,,,,,,,,,,,,,,,,,,,,,,,,,,,,,,,,,,,,,,,,,,,,,,,,,,,,,,135349,001,2025-08-14_12h04.43.850,tilt_staircase,2024.2.4,None,2025-08-14 12h04.53.133179 -0700,
-30,-60,left,0,0,0,,,,,space,0.3900059580337256,None,left,1,2.1958402080927044,None,,,,,0,0,0,0,13.374854125082493,,,,,,,,,,,,,,,,,,,,,,,,,,,,,,15.577840083045885,15.581640750053339,15.581640750053339,15.978075999999419,,,,,,,,,,,13.369524875073694,13.374854125082493,13.374854125082493,13.865709958015941,13.865709958015941,13.865709958015941,13.94167541700881,13.94167541700881,13.94167541700881,15.577776000020094,left,1,2.1958402080927044,None,space,0.3900059580337256,None,,,,,,,,,,,,,,,,,,,,,,,,,,,,,,,,,,,,,,,,,,135349,001,2025-08-14_12h04.43.850,tilt_staircase,2024.2.4,None,2025-08-14 12h04.53.133179 -0700,
-30,0,left,1,1,0,,,,,space,0.4633305419702083,None,left,1,1.0752112079644576,None,,,,,0,1,1,1,15.982973750098608,,,,,,,,,,,,,,,,,,,,,,,,,,,,,,17.060898083029315,17.064524958026595,17.064524958026595,17.531521625001915,,,,,,,,,,,15.978289916994981,15.982973750098608,15.982973750098608,16.47492562502157,16.47492562502157,16.479414208093658,16.54630787507631,16.54630787507631,16.54630787507631,17.060838667093776,left,1,1.0752112079644576,None,space,0.4633305419702083,None,,,,,,,,,,,,,,,,,,,,,,,,,,,,,,,,,,,,,,,,,,135349,001,2025-08-14_12h04.43.850,tilt_staircase,2024.2.4,None,2025-08-14 12h04.53.133179 -0700,
30,60,right,2,2,0,,,,,space,0.28946370794437826,None,right,1,1.0372277080314234,None,,,,,0,2,2,2,17.54154850007035,,,,,,,,,,,,,,,,,,,,,,,,,,,,,,18.58231979201082,18.59162116702646,18.59162116702646,18.894074958050624,,,,,,,,,,,17.531702542095445,17.54154850007035,17.54154850007035,18.0298763330793,18.0298763330793,18.0298763330793,18.10834141704254,18.10834141704254,18.10834141704254,18.582261083065532,right,1,1.0372277080314234,None,space,0.28946370794437826,None,,,,,,,,,,,,,,,,,,,,,,,,,,,,,,,,,,,,,,,,,,135349,001,2025-08-14_12h04.43.850,tilt_staircase,2024.2.4,None,2025-08-14 12h04.53.133179 -0700,
30,0,right,3,3,0,,,,,space,0.3341400830540806,None,right,1,1.0716550420038402,None,,,,,0,3,3,3,18.896714125061408,,,,,,,,,,,,,,,,,,,,,,,,,,,,,,19.977525292080827,19.981561708031222,19.981561708031222,20.32779037510045,,,,,,,,,,,18.89427325001452,18.896714125061408,18.896714125061408,19.391556999995373,19.391556999995373,19.391556999995373,19.46336004207842,19.46336004207842,19.46336004207842,19.97747112507932,right,1,1.0716550420038402,None,space,0.3341400830540806,None,,,,,,,,,,,,,,,,,,,,,,,,,,,,,,,,,,,,,,,,,,135349,001,2025-08-14_12h04.43.850,tilt_staircase,2024.2.4,None,2025-08-14 12h04.53.133179 -0700,
,,,,,,,,,,,,,,,,,,,,,,,,,,,,,,,,,,,,,,,,,,,,,,,,,,,,,,,,,,,,,,,,,,,,,,,,,,,,,,,,,,,,,,20.327882792102173,20.33277795801405,20.33277795801405,21.932133875088766,space,1.5977826250018552,None,,,,,,,,,,,,,,,,,,,,,,,,,,,,,,,,,,,135349,001,2025-08-14_12h04.43.850,tilt_staircase,2024.2.4,None,2025-08-14 12h04.53.133179 -0700,
,,,,,,,,,,,,,,,,,,,,,,,,,22.028995292028412,,,,,,,,,,,,,,,,,,,,,,,,,,,,,,,,,,,,,,,,,,,,,,,,,,,,,,,,,,,,,,,,,,,,high_start,50,20,30,-30,"[5, 2, 1, 0.5, 0.25, 0.1]",lin,1,1,7,0,1,0,start,5,20,22.023933125077747,22.028995292028412,22.028995292028412,22.431896125082858,22.431896125082858,22.508258583024144,22.508258583024144,22.508258583024144,22.524989625089802,23.74902083305642,1,,,,,,,,135349,001,2025-08-14_12h04.43.850,tilt_staircase,2024.2.4,None,2025-08-14 12h04.53.133179 -0700,
,,,,,,,,,,,,,,,,,,,,,,,,,23.75823537504766,,,,,,,,,,,,,,,,,,,,,,,,,,,,,,,,,,,,,,,,,,,,,,,,,,,,,,,,,,,,,,,,,,,,low_start,50,-20,30,-30,"[5, 2, 1, 0.5, 0.25, 0.1]",lin,1,1,7,1,1,1,start,5,-20,23.749202833045274,23.75823537504766,23.75823537504766,24.246373458066955,24.246373458066955,24.32490745803807,24.32490745803807,24.32490745803807,24.246373458066955,25.015329667017795,0,,,,,,,,135349,001,2025-08-14_12h04.43.850,tilt_staircase,2024.2.4,None,2025-08-14 12h04.53.133179 -0700,
,,,,,,,,,,,,,,,,,,,,,,,,,25.024907167069614,,,,,,,,,,,,,,,,,,,,,,,,,,,,,,,,,,,,,,,,,,,,,,,,,,,,,,,,,,,,,,,,,,,,low_start,50,-20,30,-30,"[5, 2, 1, 0.5, 0.25, 0.1]",lin,1,1,7,1,2,2,up,5,-15,25.015521291992627,25.024907167069614,25.024907167069614,25.513157083070837,25.513157083070837,25.591579708037898,25.591579708037898,25.591579708037898,25.513157083070837,26.560634833062068,0,,,,,,,,135349,001,2025-08-14_12h04.43.850,tilt_staircase,2024.2.4,None,2025-08-14 12h04.53.133179 -0700,
,,,,,,,,,,,,,,,,,,,,,,,,,26.564356375019997,,,,,,,,,,,,,,,,,,,,,,,,,,,,,,,,,,,,,,,,,,,,,,,,,,,,,,,,,,,,,,,,,,,,high_start,50,20,30,-30,"[5, 2, 1, 0.5, 0.25, 0.1]",lin,1,1,7,0,2,3,down,5,15,26.56079508305993,26.564356375019997,26.564356375019997,27.058232417097315,27.058232417097315,27.129304542089812,27.129304542089812,27.129304542089812,27.062826833105646,27.698884167009965,1,,,,,,,,135349,001,2025-08-14_12h04.43.850,tilt_staircase,2024.2.4,None,2025-08-14 12h04.53.133179 -0700,
,,,,,,,,,,,,,,,,,,,,,,,,,27.708308583009057,,,,,,,,,,,,,,,,,,,,,,,,,,,,,,,,,,,,,,,,,,,,,,,,,,,,,,,,,,,,,,,,,,,,low_start,50,-20,30,-30,"[5, 2, 1, 0.5, 0.25, 0.1]",lin,1,1,7,1,3,4,up,5,-10,27.699137417017482,27.708308583009057,27.708308583009057,28.196597875095904,28.196597875095904,28.274842083104886,28.274842083104886,28.274842083104886,28.196597875095904,29.84441241703462,0,,,,,,,,135349,001,2025-08-14_12h04.43.850,tilt_staircase,2024.2.4,None,2025-08-14 12h04.53.133179 -0700,
,,,,,,,,,,,,,,,,,,,,,,,,,29.84837454208173,,,,,,,,,,,,,,,,,,,,,,,,,,,,,,,,,,,,,,,,,,,,,,,,,,,,,,,,,,,,,,,,,,,,high_start,50,20,30,-30,"[5, 2, 1, 0.5, 0.25, 0.1]",lin,1,1,7,0,3,5,down,5,10,29.84459129208699,29.84837454208173,29.84837454208173,30.341593167046085,30.341593167046085,30.412693167105317,30.412693167105317,30.412693167105317,30.346355792018585,31.07757195807062,1,,,,,,,,135349,001,2025-08-14_12h04.43.850,tilt_staircase,2024.2.4,None,2025-08-14 12h04.53.133179 -0700,
,,,,,,,,,,,,,,,,,,,,,,,,,31.08138658304233,,,,,,,,,,,,,,,,,,,,,,,,,,,,,,,,,,,,,,,,,,,,,,,,,,,,,,,,,,,,,,,,,,,,low_start,50,-20,30,-30,"[5, 2, 1, 0.5, 0.25, 0.1]",lin,1,1,7,1,4,6,up,5,-5,31.07775275001768,31.08138658304233,31.08138658304233,31.574939167010598,31.574939167010598,31.64608895801939,31.64608895801939,31.64608895801939,31.579572958056815,32.315375500009395,0,,,,,,,,135349,001,2025-08-14_12h04.43.850,tilt_staircase,2024.2.4,None,2025-08-14 12h04.53.133179 -0700,
,,,,,,,,,,,,,,,,,,,,,,,,,32.32493062503636,,,,,,,,,,,,,,,,,,,,,,,,,,,,,,,,,,,,,,,,,,,,,,,,,,,,,,,,,,,,,,,,,,,,high_start,50,20,30,-30,"[5, 2, 1, 0.5, 0.25, 0.1]",lin,1,1,7,0,4,7,down,5,5,32.315559625043534,32.32493062503636,32.32493062503636,32.813534792046994,32.813534792046994,32.8915640830528,32.8915640830528,32.8915640830528,32.813534792046994,33.74817154207267,1,,,,,,,,135349,001,2025-08-14_12h04.43.850,tilt_staircase,2024.2.4,None,2025-08-14 12h04.53.133179 -0700,
,,,,,,,,,,,,,,,,,,,,,,,,,33.75824012502562,,,,,,,,,,,,,,,,,,,,,,,,,,,,,,,,,,,,,,,,,,,,,,,,,,,,,,,,,,,,,,,,,,,,high_start,50,20,30,-30,"[5, 2, 1, 0.5, 0.25, 0.1]",lin,1,1,7,0,5,8,down,5,0,33.7483440421056,33.75824012502562,33.75824012502562,34.246341875055805,34.246341875055805,34.32486799999606,34.32486799999606,34.32486799999606,34.246341875055805,35.68247320805676,1,,,,,,,,135349,001,2025-08-14_12h04.43.850,tilt_staircase,2024.2.4,None,2025-08-14 12h04.53.133179 -0700,
,,,,,,,,,,,,,,,,,,,,,,,,,35.69162891700398,,,,,,,,,,,,,,,,,,,,,,,,,,,,,,,,,,,,,,,,,,,,,,,,,,,,,,,,,,,,,,,,,,,,low_start,50,-20,30,-30,"[5, 2, 1, 0.5, 0.25, 0.1]",lin,1,1,7,1,5,9,up,5,0,35.68264541705139,35.69162891700398,35.69162891700398,36.17977091704961,36.17977091704961,36.25816816708539,36.25816816708539,36.25816816708539,36.17977091704961,37.12757175008301,1,,,,,,,,135349,001,2025-08-14_12h04.43.850,tilt_staircase,2024.2.4,None,2025-08-14 12h04.53.133179 -0700,
,,,,,,,,,,,,,,,,,,,,,,,,,37.13157570804469,,,,,,,,,,,,,,,,,,,,,,,,,,,,,,,,,,,,,,,,,,,,,,,,,,,,,,,,,,,,,,,,,,,,high_start,50,20,30,-30,"[5, 2, 1, 0.5, 0.25, 0.1]",lin,1,1,7,0,6,10,down,5,-5,37.127765917102806,37.13157570804469,37.13157570804469,37.624896083027124,37.624896083027124,37.695693833054975,37.695693833054975,37.695693833054975,37.6294395000441,38.41700225009117,0,,,,,,,,135349,001,2025-08-14_12h04.43.850,tilt_staircase,2024.2.4,None,2025-08-14 12h04.53.133179 -0700,
,,,,,,,,,,,,,,,,,,,,,,,,,38.4248249999946,,,,,,,,,,,,,,,,,,,,,,,,,,,,,,,,,,,,,,,,,,,,,,,,,,,,,,,,,,,,,,,,,,,,low_start,50,-20,30,-30,"[5, 2, 1, 0.5, 0.25, 0.1]",lin,1,1,7,1,6,11,down,2,-2,38.41721204202622,38.4248249999946,38.4248249999946,38.9133669170551,38.9133669170551,38.99154158309102,38.99154158309102,38.99154158309102,38.9133669170551,39.63205908308737,0,,,,,,,,135349,001,2025-08-14_12h04.43.850,tilt_staircase,2024.2.4,None,2025-08-14 12h04.53.133179 -0700,
,,,,,,,,,,,,,,,,,,,,,,,,,39.641579832998104,,,,,,,,,,,,,,,,,,,,,,,,,,,,,,,,,,,,,,,,,,,,,,,,,,,,,,,,,,,,,,,,,,,,low_start,50,-20,30,-30,"[5, 2, 1, 0.5, 0.25, 0.1]",lin,1,1,7,1,7,12,up,1,-1,39.63226300000679,39.641579832998104,39.641579832998104,40.129655125085264,40.129655125085264,40.20819312508684,40.20819312508684,40.20819312508684,40.129655125085264,41.027595499996096,0,,,,,,,,135349,001,2025-08-14_12h04.43.850,tilt_staircase,2024.2.4,None,2025-08-14 12h04.53.133179 -0700,
,,,,,,,,,,,,,,,,,,,,,,,,,41.03156274999492,,,,,,,,,,,,,,,,,,,,,,,,,,,,,,,,,,,,,,,,,,,,,,,,,,,,,,,,,,,,,,,,,,,,high_start,50,20,30,-30,"[5, 2, 1, 0.5, 0.25, 0.1]",lin,1,1,7,0,7,13,up,2,-3,41.027774000074714,41.03156274999492,41.03156274999492,41.52491408307105,41.52491408307105,41.59661191701889,41.59661191701889,41.59661191701889,41.529789542080835,42.16486312507186,0,,,,,,,,135349,001,2025-08-14_12h04.43.850,tilt_staircase,2024.2.4,None,2025-08-14 12h04.53.133179 -0700,
,,,,,,,,,,,,,,,,,,,,,,,,,42.174928458058275,,,,,,,,,,,,,,,,,,,,,,,,,,,,,,,,,,,,,,,,,,,,,,,,,,,,,,,,,,,,,,,,,,,,low_start,50,-20,30,-30,"[5, 2, 1, 0.5, 0.25, 0.1]",lin,1,1,7,1,8,14,up,1,0,42.16503112507053,42.174928458058275,42.174928458058275,42.66423870809376,42.66423870809376,42.74212304200046,42.74212304200046,42.74212304200046,42.66423870809376,43.36112070805393,0,,,,,,,,135349,001,2025-08-14_12h04.43.850,tilt_staircase,2024.2.4,None,2025-08-14 12h04.53.133179 -0700,
,,,,,,,,,,,,,,,,,,,,,,,,,43.36508808308281,,,,,,,,,,,,,,,,,,,,,,,,,,,,,,,,,,,,,,,,,,,,,,,,,,,,,,,,,,,,,,,,,,,,high_start,50,20,30,-30,"[5, 2, 1, 0.5, 0.25, 0.1]",lin,1,1,7,0,8,15,up,2,-1,43.36130354204215,43.36508808308281,43.36508808308281,43.858199917012826,43.858199917012826,43.929272292065434,43.929272292065434,43.929272292065434,43.86284420802258,44.47756983304862,0,,,,,,,,135349,001,2025-08-14_12h04.43.850,tilt_staircase,2024.2.4,None,2025-08-14 12h04.53.133179 -0700,
,,,,,,,,,,,,,,,,,,,,,,,,,44.48140679206699,,,,,,,,,,,,,,,,,,,,,,,,,,,,,,,,,,,,,,,,,,,,,,,,,,,,,,,,,,,,,,,,,,,,low_start,50,-20,30,-30,"[5, 2, 1, 0.5, 0.25, 0.1]",lin,1,1,7,1,9,16,up,1,1,44.477748583070934,44.48140679206699,44.48140679206699,44.974908750038594,44.974908750038594,45.045935542089865,45.045935542089865,45.045935542089865,44.979484750074334,46.04399600008037,0,,,,,,,,135349,001,2025-08-14_12h04.43.850,tilt_staircase,2024.2.4,None,2025-08-14 12h04.53.133179 -0700,
,,,,,,,,,,,,,,,,,,,,,,,,,46.04778137500398,,,,,,,,,,,,,,,,,,,,,,,,,,,,,,,,,,,,,,,,,,,,,,,,,,,,,,,,,,,,,,,,,,,,high_start,50,20,30,-30,"[5, 2, 1, 0.5, 0.25, 0.1]",lin,1,1,7,0,9,17,up,2,1,46.0441400000127,46.04778137500398,46.04778137500398,46.541387833072804,46.541387833072804,46.61264645808842,46.61264645808842,46.61264645808842,46.5458342920756,47.61533212510403,0,,,,,,,,135349,001,2025-08-14_12h04.43.850,tilt_staircase,2024.2.4,None,2025-08-14 12h04.53.133179 -0700,
,,,,,,,,,,,,,,,,,,,,,,,,,47.62485029210802,,,,,,,,,,,,,,,,,,,,,,,,,,,,,,,,,,,,,,,,,,,,,,,,,,,,,,,,,,,,,,,,,,,,high_start,50,20,30,-30,"[5, 2, 1, 0.5, 0.25, 0.1]",lin,1,1,7,0,10,18,up,2,3,47.61551583302207,47.62485029210802,47.62485029210802,48.11317545804195,48.11317545804195,48.19155920809135,48.19155920809135,48.19155920809135,48.11317545804195,48.811893875012174,1,,,,,,,,135349,001,2025-08-14_12h04.43.850,tilt_staircase,2024.2.4,None,2025-08-14 12h04.53.133179 -0700,
,,,,,,,,,,,,,,,,,,,,,,,,,48.815943583031185,,,,,,,,,,,,,,,,,,,,,,,,,,,,,,,,,,,,,,,,,,,,,,,,,,,,,,,,,,,,,,,,,,,,low_start,50,-20,30,-30,"[5, 2, 1, 0.5, 0.25, 0.1]",lin,1,1,7,1,10,19,up,1,2,48.81208612502087,48.815943583031185,48.815943583031185,49.308178208069876,49.308178208069876,49.37954095809255,49.37954095809255,49.37954095809255,49.31293316709343,49.999867125065066,1,,,,,,,,135349,001,2025-08-14_12h04.43.850,tilt_staircase,2024.2.4,None,2025-08-14 12h04.53.133179 -0700,
,,,,,,,,,,,,,,,,,,,,,,,,,50.00824079208542,,,,,,,,,,,,,,,,,,,,,,,,,,,,,,,,,,,,,,,,,,,,,,,,,,,,,,,,,,,,,,,,,,,,low_start,50,-20,30,-30,"[5, 2, 1, 0.5, 0.25, 0.1]",lin,1,1,7,1,11,20,down,0.5,1.5,50.000024167005904,50.00824079208542,50.00824079208542,50.49637295806315,50.49637295806315,50.57488966709934,50.57488966709934,50.57488966709934,50.49637295806315,51.215122000081465,1,,,,,,,,135349,001,2025-08-14_12h04.43.850,tilt_staircase,2024.2.4,None,2025-08-14 12h04.53.133179 -0700,
,,,,,,,,,,,,,,,,,,,,,,,,,51.224930458003655,,,,,,,,,,,,,,,,,,,,,,,,,,,,,,,,,,,,,,,,,,,,,,,,,,,,,,,,,,,,,,,,,,,,high_start,50,20,30,-30,"[5, 2, 1, 0.5, 0.25, 0.1]",lin,1,1,7,0,11,21,down,1,2,51.21529858303256,51.224930458003655,51.224930458003655,51.713312792009674,51.713312792009674,51.79142000002321,51.79142000002321,51.79142000002321,51.713312792009674,52.382065500016324,1,,,,,,,,135349,001,2025-08-14_12h04.43.850,tilt_staircase,2024.2.4,None,2025-08-14 12h04.53.133179 -0700,
,,,,,,,,,,,,,,,,,,,,,,,,,52.39155904203653,,,,,,,,,,,,,,,,,,,,,,,,,,,,,,,,,,,,,,,,,,,,,,,,,,,,,,,,,,,,,,,,,,,,high_start,50,20,30,-30,"[5, 2, 1, 0.5, 0.25, 0.1]",lin,1,1,7,0,12,22,down,1,1,52.38224083301611,52.39155904203653,52.39155904203653,52.8801969171036,52.8801969171036,52.95828116708435,52.95828116708435,52.95828116708435,52.8801969171036,53.51248191704508,1,,,,,,,,135349,001,2025-08-14_12h04.43.850,tilt_staircase,2024.2.4,None,2025-08-14 12h04.53.133179 -0700,
,,,,,,,,,,,,,,,,,,,,,,,,,53.518397583044134,,,,,,,,,,,,,,,,,,,,,,,,,,,,,,,,,,,,,,,,,,,,,,,,,,,,,,,,,,,,,,,,,,,,low_start,50,-20,30,-30,"[5, 2, 1, 0.5, 0.25, 0.1]",lin,1,1,7,1,12,23,down,0.5,1.0,53.512715083081275,53.518397583044134,53.518397583044134,54.008220458053984,54.008220458053984,54.0792792920256,54.0792792920256,54.091537291998975,54.01279850001447,54.74415816704277,1,,,,,,,,135349,001,2025-08-14_12h04.43.850,tilt_staircase,2024.2.4,None,2025-08-14 12h04.53.133179 -0700,
,,,,,,,,,,,,,,,,,,,,,,,,,54.74794033309445,,,,,,,,,,,,,,,,,,,,,,,,,,,,,,,,,,,,,,,,,,,,,,,,,,,,,,,,,,,,,,,,,,,,high_start,50,20,30,-30,"[5, 2, 1, 0.5, 0.25, 0.1]",lin,1,1,7,0,13,24,down,1,0,54.74433558306191,54.74794033309445,54.74794033309445,55.24147891707253,55.24147891707253,55.31263370800298,55.31263370800298,55.31263370800298,55.24614870804362,55.89872516703326,0,,,,,,,,135349,001,2025-08-14_12h04.43.850,tilt_staircase,2024.2.4,None,2025-08-14 12h04.53.133179 -0700,
,,,,,,,,,,,,,,,,,,,,,,,,,55.90821495803539,,,,,,,,,,,,,,,,,,,,,,,,,,,,,,,,,,,,,,,,,,,,,,,,,,,,,,,,,,,,,,,,,,,,low_start,50,-20,30,-30,"[5, 2, 1, 0.5, 0.25, 0.1]",lin,1,1,7,1,13,25,down,0.5,0.5,55.89892075001262,55.90821495803539,55.90821495803539,56.396483374992386,56.396483374992386,56.474894542014226,56.474894542014226,56.474894542014226,56.396483374992386,57.377261625020765,0,,,,,,,,135349,001,2025-08-14_12h04.43.850,tilt_staircase,2024.2.4,None,2025-08-14 12h04.53.133179 -0700,
,,,,,,,,,,,,,,,,,,,,,,,,,57.38119233306497,,,,,,,,,,,,,,,,,,,,,,,,,,,,,,,,,,,,,,,,,,,,,,,,,,,,,,,,,,,,,,,,,,,,high_start,50,20,30,-30,"[5, 2, 1, 0.5, 0.25, 0.1]",lin,1,1,7,0,14,26,up,0.5,0.5,57.37744100007694,57.38119233306497,57.38119233306497,57.87485737504903,57.87485737504903,57.94622775004245,57.94622775004245,57.94622775004245,57.87937362503726,58.665710875066,1,,,,,,,,135349,001,2025-08-14_12h04.43.850,tilt_staircase,2024.2.4,None,2025-08-14 12h04.53.133179 -0700,
,,,,,,,,,,,,,,,,,,,,,,,,,58.6748786669923,,,,,,,,,,,,,,,,,,,,,,,,,,,,,,,,,,,,,,,,,,,,,,,,,,,,,,,,,,,,,,,,,,,,low_start,50,-20,30,-30,"[5, 2, 1, 0.5, 0.25, 0.1]",lin,1,1,7,1,14,27,up,0.25,0.75,58.665891458047554,58.6748786669923,58.6748786669923,59.163035083096474,59.163035083096474,59.24151933309622,59.24151933309622,59.24151933309622,59.163035083096474,59.977186375064775,1,,,,,,,,135349,001,2025-08-14_12h04.43.850,tilt_staircase,2024.2.4,None,2025-08-14 12h04.53.133179 -0700,
,,,,,,,,,,,,,,,,,,,,,,,,,59.981033458025195,,,,,,,,,,,,,,,,,,,,,,,,,,,,,,,,,,,,,,,,,,,,,,,,,,,,,,,,,,,,,,,,,,,,high_start,50,20,30,-30,"[5, 2, 1, 0.5, 0.25, 0.1]",lin,1,1,7,0,15,28,down,0.25,0.25,59.977367042098194,59.981033458025195,59.981033458025195,60.47485537501052,60.47485537501052,60.54604937508702,60.54604937508702,60.54604937508702,60.479487542063,62.144210042082705,1,,,,,,,,135349,001,2025-08-14_12h04.43.850,tilt_staircase,2024.2.4,None,2025-08-14 12h04.53.133179 -0700,
,,,,,,,,,,,,,,,,,,,,,,,,,62.14809029200114,,,,,,,,,,,,,,,,,,,,,,,,,,,,,,,,,,,,,,,,,,,,,,,,,,,,,,,,,,,,,,,,,,,,low_start,50,-20,30,-30,"[5, 2, 1, 0.5, 0.25, 0.1]",lin,1,1,7,1,15,29,down,0.1,0.65,62.1443880420411,62.14809029200114,62.14809029200114,62.641504667000845,62.641504667000845,62.71288525010459,62.71288525010459,62.71288525010459,62.646039583021775,63.51497191702947,1,,,,,,,,135349,001,2025-08-14_12h04.43.850,tilt_staircase,2024.2.4,None,2025-08-14 12h04.53.133179 -0700,
,,,,,,,,,,,,,,,,,,,,,,,,,63.52488241705578,,,,,,,,,,,,,,,,,,,,,,,,,,,,,,,,,,,,,,,,,,,,,,,,,,,,,,,,,,,,,,,,,,,,low_start,50,-20,30,-30,"[5, 2, 1, 0.5, 0.25, 0.1]",lin,1,1,7,1,16,30,down,0.1,0.55,63.515208000084385,63.52488241705578,63.52488241705578,64.01357070810627,64.01357070810627,64.09150658303406,64.09150658303406,64.09150658303406,64.01357070810627,64.89896862499882,1,,,,,,,,135349,001,2025-08-14_12h04.43.850,tilt_staircase,2024.2.4,None,2025-08-14 12h04.53.133179 -0700,
,,,,,,,,,,,,,,,,,,,,,,,,,64.90820025000721,,,,,,,,,,,,,,,,,,,,,,,,,,,,,,,,,,,,,,,,,,,,,,,,,,,,,,,,,,,,,,,,,,,,high_start,50,20,30,-30,"[5, 2, 1, 0.5, 0.25, 0.1]",lin,1,1,7,0,16,31,down,0.25,0.0,64.89913745806552,64.90820025000721,64.90820025000721,65.39638241706416,65.39638241706416,65.4748107920168,65.4748107920168,65.4748107920168,65.39638241706416,66.2774840000784,1,,,,,,,,135349,001,2025-08-14_12h04.43.850,tilt_staircase,2024.2.4,None,2025-08-14 12h04.53.133179 -0700,
,,,,,,,,,,,,,,,,,,,,,,,,,66.28133791708387,,,,,,,,,,,,,,,,,,,,,,,,,,,,,,,,,,,,,,,,,,,,,,,,,,,,,,,,,,,,,,,,,,,,high_start,50,20,30,-30,"[5, 2, 1, 0.5, 0.25, 0.1]",lin,1,1,7,0,17,32,down,0.25,-0.25,66.2776656250935,66.28133791708387,66.28133791708387,66.77471383300144,66.77471383300144,66.84643620799761,66.84643620799761,66.84643620799761,66.77947945799679,67.4292461250443,0,,,,,,,,135349,001,2025-08-14_12h04.43.850,tilt_staircase,2024.2.4,None,2025-08-14 12h04.53.133179 -0700,
,,,,,,,,,,,,,,,,,,,,,,,,,67.43525920808315,,,,,,,,,,,,,,,,,,,,,,,,,,,,,,,,,,,,,,,,,,,,,,,,,,,,,,,,,,,,,,,,,,,,low_start,50,-20,30,-30,"[5, 2, 1, 0.5, 0.25, 0.1]",lin,1,1,7,1,17,33,down,0.1,0.45000000000000007,67.42948762502056,67.43525920808315,67.43525920808315,67.92480745806824,67.92480745806824,67.99611983308569,67.99611983308569,68.00816145807039,67.9293334580725,68.59421441704035,0,,,,,,,,135349,001,2025-08-14_12h04.43.850,tilt_staircase,2024.2.4,None,2025-08-14 12h04.53.133179 -0700,
,,,,,,,,,,,,,,,,,,,,,,,,,68.59822075010743,,,,,,,,,,,,,,,,,,,,,,,,,,,,,,,,,,,,,,,,,,,,,,,,,,,,,,,,,,,,,,,,,,,,high_start,50,20,30,-30,"[5, 2, 1, 0.5, 0.25, 0.1]",lin,1,1,7,0,18,34,up,0.1,-0.15,68.5944015000714,68.59822075010743,68.59822075010743,69.09140162507538,69.09140162507538,69.16261112503707,69.16261112503707,69.16261112503707,69.09596508310642,69.86645383306313,0,,,,,,,,135349,001,2025-08-14_12h04.43.850,tilt_staircase,2024.2.4,None,2025-08-14 12h04.53.133179 -0700,
,,,,,,,,,,,,,,,,,,,,,,,,,69.874847625033,,,,,,,,,,,,,,,,,,,,,,,,,,,,,,,,,,,,,,,,,,,,,,,,,,,,,,,,,,,,,,,,,,,,low_start,50,-20,30,-30,"[5, 2, 1, 0.5, 0.25, 0.1]",lin,1,1,7,1,18,35,up,0.1,0.55,69.86664254206698,69.874847625033,69.874847625033,70.36290995799936,70.36290995799936,70.44146883301437,70.44146883301437,70.44146883301437,70.36290995799936,71.0941795000108,0,,,,,,,,135349,001,2025-08-14_12h04.43.850,tilt_staircase,2024.2.4,None,2025-08-14 12h04.53.133179 -0700,
,,,,,,,,,,,,,,,,,,,,,,,,,71.09808800008614,,,,,,,,,,,,,,,,,,,,,,,,,,,,,,,,,,,,,,,,,,,,,,,,,,,,,,,,,,,,,,,,,,,,high_start,50,20,30,-30,"[5, 2, 1, 0.5, 0.25, 0.1]",lin,1,1,7,0,19,36,up,0.1,-0.04999999999999999,71.09436908306088,71.09808800008614,71.09808800008614,71.59149312507361,71.59149312507361,71.6625477920752,71.6625477920752,71.6625477920752,71.59613187506329,72.16506783303339,0,,,,,,,,135349,001,2025-08-14_12h04.43.850,tilt_staircase,2024.2.4,None,2025-08-14 12h04.53.133179 -0700,
,,,,,,,,,,,,,,,,,,,,,,,,,72.17485395807307,,,,,,,,,,,,,,,,,,,,,,,,,,,,,,,,,,,,,,,,,,,,,,,,,,,,,,,,,,,,,,,,,,,,low_start,50,-20,30,-30,"[5, 2, 1, 0.5, 0.25, 0.1]",lin,1,1,7,1,19,37,up,0.1,0.65,72.1652376250131,72.17485395807307,72.17485395807307,72.66317608300596,72.66317608300596,72.74137275002431,72.74137275002431,72.74137275002431,72.66317608300596,73.31090125010815,0,,,,,,,,135349,001,2025-08-14_12h04.43.850,tilt_staircase,2024.2.4,None,2025-08-14 12h04.53.133179 -0700,
,,,,,,,,,,,,,,,,,,,,,,,,,73.31491616705898,,,,,,,,,,,,,,,,,,,,,,,,,,,,,,,,,,,,,,,,,,,,,,,,,,,,,,,,,,,,,,,,,,,,low_start,50,-20,30,-30,"[5, 2, 1, 0.5, 0.25, 0.1]",lin,1,1,7,1,20,38,up,0.1,0.75,73.31112545810174,73.31491616705898,73.31491616705898,73.80803320801351,73.80803320801351,73.8787700420944,73.8787700420944,73.8787700420944,73.81257529207505,74.81092212500516,0,,,,,,,,135349,001,2025-08-14_12h04.43.850,tilt_staircase,2024.2.4,None,2025-08-14 12h04.53.133179 -0700,
,,,,,,,,,,,,,,,,,,,,,,,,,74.81483008305077,,,,,,,,,,,,,,,,,,,,,,,,,,,,,,,,,,,,,,,,,,,,,,,,,,,,,,,,,,,,,,,,,,,,high_start,50,20,30,-30,"[5, 2, 1, 0.5, 0.25, 0.1]",lin,1,1,7,0,20,39,up,0.1,0.05000000000000002,74.81111516710371,74.81483008305077,74.81483008305077,75.30815808300395,75.30815808300395,75.37953683303203,75.37953683303203,75.37953683303203,75.31285762507468,76.01055316708516,0,,,,,,,,135349,001,2025-08-14_12h04.43.850,tilt_staircase,2024.2.4,None,2025-08-14 12h04.53.133179 -0700,
,,,,,,,,,,,,,,,,,,,,,,,,,76.01440329209436,,,,,,,,,,,,,,,,,,,,,,,,,,,,,,,,,,,,,,,,,,,,,,,,,,,,,,,,,,,,,,,,,,,,low_start,50,-20,30,-30,"[5, 2, 1, 0.5, 0.25, 0.1]",lin,1,1,7,1,21,40,up,0.1,0.85,76.01072800008114,76.01440329209436,76.01440329209436,76.50806345802266,76.50806345802266,76.5792459170334,76.5792459170334,76.5792459170334,76.51247637509368,77.21485045808367,0,,,,,,,,135349,001,2025-08-14_12h04.43.850,tilt_staircase,2024.2.4,None,2025-08-14 12h04.53.133179 -0700,
,,,,,,,,,,,,,,,,,,,,,,,,,77.22482733300421,,,,,,,,,,,,,,,,,,,,,,,,,,,,,,,,,,,,,,,,,,,,,,,,,,,,,,,,,,,,,,,,,,,,high_start,50,20,30,-30,"[5, 2, 1, 0.5, 0.25, 0.1]",lin,1,1,7,0,21,41,up,0.1,0.15000000000000002,77.21502079209313,77.22482733300421,77.22482733300421,77.71305154205766,77.71305154205766,77.79135216702707,77.79135216702707,77.79135216702707,77.71305154205766,79.26074962504208,0,,,,,,,,135349,001,2025-08-14_12h04.43.850,tilt_staircase,2024.2.4,None,2025-08-14 12h04.53.133179 -0700,
,,,,,,,,,,,,,,,,,,,,,,,,,79.26476000004914,,,,,,,,,,,,,,,,,,,,,,,,,,,,,,,,,,,,,,,,,,,,,,,,,,,,,,,,,,,,,,,,,,,,high_start,50,20,30,-30,"[5, 2, 1, 0.5, 0.25, 0.1]",lin,1,1,7,0,22,42,up,0.1,0.25,79.26093766710255,79.26476000004914,79.26476000004914,79.75815100001637,79.75815100001637,79.82917666702997,79.82917666702997,79.82917666702997,79.76283637504093,81.2440400000196,0,,,,,,,,135349,001,2025-08-14_12h04.43.850,tilt_staircase,2024.2.4,None,2025-08-14 12h04.53.133179 -0700,
,,,,,,,,,,,,,,,,,,,,,,,,,81.24787570803892,,,,,,,,,,,,,,,,,,,,,,,,,,,,,,,,,,,,,,,,,,,,,,,,,,,,,,,,,,,,,,,,,,,,low_start,50,-20,30,-30,"[5, 2, 1, 0.5, 0.25, 0.1]",lin,1,1,7,1,22,43,up,0.1,0.95,81.24422079208307,81.24787570803892,81.24787570803892,81.74142683309037,81.74142683309037,81.81253787502646,81.81253787502646,81.81253787502646,81.74611966707744,82.81506454199553,0,,,,,,,,135349,001,2025-08-14_12h04.43.850,tilt_staircase,2024.2.4,None,2025-08-14 12h04.53.133179 -0700,
,,,,,,,,,,,,,,,,,,,,,,,,,82.82480970805045,,,,,,,,,,,,,,,,,,,,,,,,,,,,,,,,,,,,,,,,,,,,,,,,,,,,,,,,,,,,,,,,,,,,high_start,50,20,30,-30,"[5, 2, 1, 0.5, 0.25, 0.1]",lin,1,1,7,0,23,44,up,0.1,0.35,82.81530554208439,82.82480970805045,82.82480970805045,83.31327837507706,83.31327837507706,83.39154687500559,83.39154687500559,83.39154687500559,83.31327837507706,84.06077412504237,1,,,,,,,,135349,001,2025-08-14_12h04.43.850,tilt_staircase,2024.2.4,None,2025-08-14 12h04.53.133179 -0700,
,,,,,,,,,,,,,,,,,,,,,,,,,84.06467195809819,,,,,,,,,,,,,,,,,,,,,,,,,,,,,,,,,,,,,,,,,,,,,,,,,,,,,,,,,,,,,,,,,,,,low_start,50,-20,30,-30,"[5, 2, 1, 0.5, 0.25, 0.1]",lin,1,1,7,1,23,45,up,0.1,1.05,84.06096783303656,84.06467195809819,84.06467195809819,84.5581022920087,84.5581022920087,84.62926179205533,84.62926179205533,84.62926179205533,84.56272074999288,85.84941045800224,1,,,,,,,,135349,001,2025-08-14_12h04.43.850,tilt_staircase,2024.2.4,None,2025-08-14 12h04.53.133179 -0700,
,,,,,,,,,,,,,,,,,,,,,,,,,85.85817704210058,,,,,,,,,,,,,,,,,,,,,,,,,,,,,,,,,,,,,,,,,,,,,,,,,,,,,,,,,,,,,,,,,,,,high_start,50,20,30,-30,"[5, 2, 1, 0.5, 0.25, 0.1]",lin,1,1,7,0,24,46,down,0.1,0.24999999999999997,85.84961625002325,85.85817704210058,85.85817704210058,86.34644204203505,86.34644204203505,86.42471820802893,86.42471820802893,86.42471820802893,86.34644204203505,87.06558483303525,0,,,,,,,,135349,001,2025-08-14_12h04.43.850,tilt_staircase,2024.2.4,None,2025-08-14 12h04.53.133179 -0700,
,,,,,,,,,,,,,,,,,,,,,,,,,87.07479729200713,,,,,,,,,,,,,,,,,,,,,,,,,,,,,,,,,,,,,,,,,,,,,,,,,,,,,,,,,,,,,,,,,,,,low_start,50,-20,30,-30,"[5, 2, 1, 0.5, 0.25, 0.1]",lin,1,1,7,1,24,47,down,0.1,0.9500000000000001,87.06576533301268,87.07479729200713,87.07479729200713,87.56267200002912,87.56267200002912,87.64140791702084,87.64140791702084,87.64140791702084,87.56267200002912,88.19398779200856,1,,,,,,,,135349,001,2025-08-14_12h04.43.850,tilt_staircase,2024.2.4,None,2025-08-14 12h04.53.133179 -0700,
,,,,,,,,,,,,,,,,,,,,,,,,,88.19779391703196,,,,,,,,,,,,,,,,,,,,,,,,,,,,,,,,,,,,,,,,,,,,,,,,,,,,,,,,,,,,,,,,,,,,low_start,50,-20,30,-30,"[5, 2, 1, 0.5, 0.25, 0.1]",lin,1,1,7,1,25,48,down,0.1,0.8500000000000001,88.19416549999733,88.19779391703196,88.19779391703196,88.6914107920602,88.6914107920602,88.76226579200011,88.76226579200011,88.76226579200011,88.69598904205486,89.35024279204663,1,,,,,,,,135349,001,2025-08-14_12h04.43.850,tilt_staircase,2024.2.4,None,2025-08-14 12h04.53.133179 -0700,
,,,,,,,,,,,,,,,,,,,,,,,,,89.35824591701385,,,,,,,,,,,,,,,,,,,,,,,,,,,,,,,,,,,,,,,,,,,,,,,,,,,,,,,,,,,,,,,,,,,,high_start,50,20,30,-30,"[5, 2, 1, 0.5, 0.25, 0.1]",lin,1,1,7,0,25,49,up,0.1,0.35,89.35060416709166,89.35824591701385,89.35824591701385,89.84626204206143,89.84626204206143,89.92463625001255,89.92463625001255,89.92898145806976,89.84626204206143,92.21103308303282,1,,,,,,,,135349,001,2025-08-14_12h04.43.850,tilt_staircase,2024.2.4,None,2025-08-14 12h04.53.133179 -0700,
,,,,,,,,,,,,,,,,,,,,,,,,,,,,,,,,,,,,,,,,,,,,,,,,,,,,,,,,,,,,,,,,,,,,,,,,,,,,,,,,,,,,,,,,,,,,,,,,,,,,,,,,,,,,,,,,,,,,,,,,92.2111014170805,92.21561275003478,92.21561275003478,93.21086654206738,space,0.9908805410377681,None,135349,001,2025-08-14_12h04.43.850,tilt_staircase,2024.2.4,None,2025-08-14 12h04.53.133179 -0700,
