center,surround,correct,thisN,thisTrialN,thisRepN,key_resp_3.keys,key_resp_3.corr,key_resp_3.rt,key_resp_3.duration,key_resp_7.keys,key_resp_7.rt,key_resp_7.duration,key_resp_4.keys,key_resp_4.corr,key_resp_4.rt,key_resp_4.duration,practice_no_time.thisRepN,practice_no_time.thisTrialN,practice_no_time.thisN,practice_no_time.thisIndex,practice_timed.thisRepN,practice_timed.thisTrialN,practice_timed.thisN,practice_timed.thisIndex,thisRow.t,notes,instr.started,text_5.started,key_resp_2.started,instr.stopped,key_resp_2.keys,key_resp_2.rt,key_resp_2.duration,instr2.started,text_6.started,key_resp_6.started,instr2.stopped,key_resp_6.keys,key_resp_6.rt,key_resp_6.duration,practice_trial.started,key_resp_3.started,text_9.started,surround_practice.started,center_practice.started,text_9.stopped,surround_practice.stopped,center_practice.stopped,text_11.started,practice_trial.stopped,practice_no_time.key_resp_3.keys,practice_no_time.key_resp_3.corr,practice_no_time.key_resp_3.rt,practice_no_time.key_resp_3.duration,practice_feedback.started,text_7.started,key_resp_7.started,practice_feedback.stopped,practice_no_time.key_resp_7.keys,practice_no_time.key_resp_7.rt,practice_no_time.key_resp_7.duration,instr3.started,text_8.started,key_resp_5.started,instr3.stopped,key_resp_5.keys,key_resp_5.rt,key_resp_5.duration,practice_trial_timed.started,key_resp_4.started,text_10.started,surround_practice_2.started,center_practice_2.started,text_10.stopped,surround_practice_2.stopped,center_practice_2.stopped,text_12.started,practice_trial_timed.stopped,practice_timed.key_resp_4.keys,practice_timed.key_resp_4.corr,practice_timed.key_resp_4.rt,practice_timed.key_resp_4.duration,practice_timed.key_resp_7.keys,practice_timed.key_resp_7.rt,practice_timed.key_resp_7.duration,start_instr.started,text_13.started,key_resp_8.started,start_instr.stopped,key_resp_8.keys,key_resp_8.rt,key_resp_8.duration,trials.label,trials.nReps,trials.startVal,trials.maxVal,trials.minVal,trials.stepSizes,trials.stepType,trials.nUp,trials.nDown,trials.nReversals,trials.thisIndex,trials.thisRepN,trials.thisN,trials.direction,trials.stepSize,trials.intensity,trial.started,resp.started,text_2.started,surround_grating.started,center_grating.started,surround_grating.stopped,center_grating.stopped,text_3.started,text_2.stopped,trial.stopped,trials.response,end.started,text_4.started,key_resp.started,end.stopped,key_resp.keys,key_resp.rt,key_resp.duration,participant,session,date,expName,psychopyVersion,frameRate,expStart,
,,,,,,,,,,,,,,,,,,,,,,,,,,,0.015508625074289739,0.02458070800639689,0.02458070800639689,0.769001916050911,space,0.7151947499951348,None,,,,,,,,,,,,,,,,,,,,,,,,,,,,,,,,,,,,,,,,,,,,,,,,,,,,,,,,,,,,,,,,,,,,,,,,,,,,,,,,,,,,,,,,,,,,,,238300,001,2025-08-14_11h35.44.693,tilt_staircase,2024.2.4,None,2025-08-14 11h35.50.997226 -0700,
,,,,,,,,,,,,,,,,,,,,,,,,,,,,,,,,,,0.769038875005208,0.7820411249995232,0.7820411249995232,1.1087027500616387,space,0.3241112499963492,None,,,,,,,,,,,,,,,,,,,,,,,,,,,,,,,,,,,,,,,,,,,,,,,,,,,,,,,,,,,,,,,,,,,,,,,,,,,,,,,,,,,,,,,238300,001,2025-08-14_11h35.44.693,tilt_staircase,2024.2.4,None,2025-08-14 11h35.50.997226 -0700,
30,0,right,0,0,0,right,1,1.6352422499330714,None,space,1.009624500060454,None,,,,,0,0,0,0,,,,,1.1244175410829484,,,,,,,,,,,,,,,,1.1148157910211012,1.1244175410829484,1.1244175410829484,1.6103970831027254,1.6103970831027254,1.6177418750012293,2.6061146249994636,2.6061146249994636,2.6061146249994636,2.7706202500266954,right,1,1.6352422499330714,None,2.773716500028968,2.8243434160249308,2.8243434160249308,3.8372137910919264,space,1.009624500060454,None,,,,,,,,,,,,,,,,,,,,,,,,,,,,,,,,,,,,,,,,,,,,,,,,,,,,,,,,,,,,,,,,,,238300,001,2025-08-14_11h35.44.693,tilt_staircase,2024.2.4,None,2025-08-14 11h35.50.997226 -0700,
-30,0,left,1,1,0,left,1,0.9310161249013618,None,space,0.40784558409359306,None,,,,,0,1,1,1,,,,,3.841757166082971,,,,,,,,,,,,,,,,3.837401583092287,3.841757166082971,3.841757166082971,4.334399166051298,4.334399166051298,4.339077916112728,,,,4.775893583078869,left,1,0.9310161249013618,None,4.775954791111872,4.784464583033696,4.784464583033696,5.20366866607219,space,0.40784558409359306,None,,,,,,,,,,,,,,,,,,,,,,,,,,,,,,,,,,,,,,,,,,,,,,,,,,,,,,,,,,,,,,,,,,238300,001,2025-08-14_11h35.44.693,tilt_staircase,2024.2.4,None,2025-08-14 11h35.50.997226 -0700,
30,60,right,2,2,0,right,1,0.8915419590193778,None,space,0.2914551249705255,None,,,,,0,2,2,2,,,,,5.207894999999553,,,,,,,,,,,,,,,,5.203852916019969,5.207894999999553,5.207894999999553,5.701172000030056,5.701172000030056,5.7055765830446035,,,,6.1035789580782875,right,1,0.8915419590193778,None,6.103644540999085,6.107241208082996,6.107241208082996,6.4035076251020655,space,0.2914551249705255,None,,,,,,,,,,,,,,,,,,,,,,,,,,,,,,,,,,,,,,,,,,,,,,,,,,,,,,,,,,,,,,,,,,238300,001,2025-08-14_11h35.44.693,tilt_staircase,2024.2.4,None,2025-08-14 11h35.50.997226 -0700,
-30,-60,left,3,3,0,left,1,0.8815881250193343,None,space,0.17044891591649503,None,,,,,0,3,3,3,,,,,6.407794583006762,,,,,,,,,,,,,,,,6.403698708047159,6.407794583006762,6.407794583006762,6.901252541108988,6.901252541108988,6.90598162508104,,,,7.2920846660854295,left,1,0.8815881250193343,None,7.292144250008278,7.301188875106163,7.301188875106163,7.474815708003007,space,0.17044891591649503,None,,,,,,,,,,,,,,,,,,,,,,,,,,,,,,,,,,,,,,,,,,,,,,,,,,,,,,,,,,,,,,,,,,238300,001,2025-08-14_11h35.44.693,tilt_staircase,2024.2.4,None,2025-08-14 11h35.50.997226 -0700,
,,,,,,,,,,,,,,,,,,,,,,,,,,,,,,,,,,,,,,,,,,,,,,,,,,,,,,,,,,,,,,7.474892375059426,7.484532541013323,7.484532541013323,8.125169666018337,space,0.6375638750614598,None,,,,,,,,,,,,,,,,,,,,,,,,,,,,,,,,,,,,,,,,,,,,,,,,,,,,,,,,,,,238300,001,2025-08-14_11h35.44.693,tilt_staircase,2024.2.4,None,2025-08-14 11h35.50.997226 -0700,
-30,-60,left,0,0,0,,,,,space,0.20629204204306006,None,left,1,0.9545002920785919,None,,,,,0,0,0,0,8.134339000098407,,,,,,,,,,,,,,,,,,,,,,,,,,,,,,9.091041750041768,9.10115704103373,9.10115704103373,9.31995708309114,,,,,,,,,,,8.129136666073464,8.134339000098407,8.134339000098407,8.624907833058387,8.624907833058387,8.624907833058387,8.701158500043675,8.701158500043675,8.701158500043675,9.090978625114076,left,1,0.9545002920785919,None,space,0.20629204204306006,None,,,,,,,,,,,,,,,,,,,,,,,,,,,,,,,,,,,,,,,,,,238300,001,2025-08-14_11h35.44.693,tilt_staircase,2024.2.4,None,2025-08-14 11h35.50.997226 -0700,
-30,0,left,1,1,0,,,,,space,0.13260233297478408,None,left,1,0.8662007909733802,None,,,,,0,1,1,1,9.322503666044213,,,,,,,,,,,,,,,,,,,,,,,,,,,,,,10.191431208048016,10.201200875104405,10.201200875104405,10.337248625000939,,,,,,,,,,,9.3201437080279,9.322503666044213,9.322503666044213,9.817782333004288,9.817782333004288,9.817782333004288,9.888811375014484,9.888811375014484,9.888811375014484,10.19137416605372,left,1,0.8662007909733802,None,space,0.13260233297478408,None,,,,,,,,,,,,,,,,,,,,,,,,,,,,,,,,,,,,,,,,,,238300,001,2025-08-14_11h35.44.693,tilt_staircase,2024.2.4,None,2025-08-14 11h35.50.997226 -0700,
30,60,right,2,2,0,,,,,space,0.13984937500208616,None,right,1,0.9394134590402246,None,,,,,0,2,2,2,10.341699000098743,,,,,,,,,,,,,,,,,,,,,,,,,,,,,,11.287368333083577,11.29113904107362,11.29113904107362,11.436969458009116,,,,,,,,,,,10.337461875053123,10.341699000098743,10.341699000098743,10.834490583045408,10.834490583045408,10.83894250006415,10.90565116610378,10.90565116610378,10.90565116610378,11.287306916085072,right,1,0.9394134590402246,None,space,0.13984937500208616,None,,,,,,,,,,,,,,,,,,,,,,,,,,,,,,,,,,,,,,,,,,238300,001,2025-08-14_11h35.44.693,tilt_staircase,2024.2.4,None,2025-08-14 11h35.50.997226 -0700,
30,0,right,3,3,0,,,,,space,0.14203020790591836,None,right,1,0.8898927910486236,None,,,,,0,3,3,3,11.441206833114848,,,,,,,,,,,,,,,,,,,,,,,,,,,,,,12.337263416033238,12.340855541056953,12.340855541056953,12.487279291031882,,,,,,,,,,,11.43716041604057,11.441206833114848,11.441206833114848,11.934497583075427,11.934497583075427,11.93897887505591,12.006170583073981,12.006170583073981,12.006170583073981,12.33720758301206,right,1,0.8898927910486236,None,space,0.14203020790591836,None,,,,,,,,,,,,,,,,,,,,,,,,,,,,,,,,,,,,,,,,,,238300,001,2025-08-14_11h35.44.693,tilt_staircase,2024.2.4,None,2025-08-14 11h35.50.997226 -0700,
,,,,,,,,,,,,,,,,,,,,,,,,,,,,,,,,,,,,,,,,,,,,,,,,,,,,,,,,,,,,,,,,,,,,,,,,,,,,,,,,,,,,,,12.48738125001546,12.492170625017025,12.492170625017025,15.991601416026242,space,3.496690292027779,None,,,,,,,,,,,,,,,,,,,,,,,,,,,,,,,,,,,238300,001,2025-08-14_11h35.44.693,tilt_staircase,2024.2.4,None,2025-08-14 11h35.50.997226 -0700,
,,,,,,,,,,,,,,,,,,,,,,,,,16.1071198330028,,,,,,,,,,,,,,,,,,,,,,,,,,,,,,,,,,,,,,,,,,,,,,,,,,,,,,,,,,,,,,,,,,,,low_start,50,-20,30,-30,"[5, 2, 1, 0.5, 0.25, 0.1]",lin,1,1,7,1,1,0,start,5,-20,16.102417083107866,16.1071198330028,16.1071198330028,16.491922166082077,16.491922166082077,16.5677363750292,16.5677363750292,16.5677363750292,16.60556754108984,17.04363633308094,0,,,,,,,,238300,001,2025-08-14_11h35.44.693,tilt_staircase,2024.2.4,None,2025-08-14 11h35.50.997226 -0700,
,,,,,,,,,,,,,,,,,,,,,,,,,17.051068958011456,,,,,,,,,,,,,,,,,,,,,,,,,,,,,,,,,,,,,,,,,,,,,,,,,,,,,,,,,,,,,,,,,,,,high_start,50,20,30,-30,"[5, 2, 1, 0.5, 0.25, 0.1]",lin,1,1,7,0,1,1,start,5,20,17.043991166050546,17.051068958011456,17.051068958011456,17.540924125001766,17.540924125001766,17.618661250104196,17.618661250104196,17.618661250104196,17.540924125001766,18.326621958054602,1,,,,,,,,238300,001,2025-08-14_11h35.44.693,tilt_staircase,2024.2.4,None,2025-08-14 11h35.50.997226 -0700,
,,,,,,,,,,,,,,,,,,,,,,,,,18.335061290999874,,,,,,,,,,,,,,,,,,,,,,,,,,,,,,,,,,,,,,,,,,,,,,,,,,,,,,,,,,,,,,,,,,,,low_start,50,-20,30,-30,"[5, 2, 1, 0.5, 0.25, 0.1]",lin,1,1,7,1,2,2,up,5,-15,18.3268642910989,18.335061290999874,18.335061290999874,18.822523666080087,18.822523666080087,18.901123500079848,18.901123500079848,18.905416833003983,18.822523666080087,19.637178583070636,0,,,,,,,,238300,001,2025-08-14_11h35.44.693,tilt_staircase,2024.2.4,None,2025-08-14 11h35.50.997226 -0700,
,,,,,,,,,,,,,,,,,,,,,,,,,19.64102200011257,,,,,,,,,,,,,,,,,,,,,,,,,,,,,,,,,,,,,,,,,,,,,,,,,,,,,,,,,,,,,,,,,,,,high_start,50,20,30,-30,"[5, 2, 1, 0.5, 0.25, 0.1]",lin,1,1,7,0,2,3,down,5,15,19.637358625070192,19.64102200011257,19.64102200011257,20.13446658302564,20.13446658302564,20.205656833015382,20.205656833015382,20.205656833015382,20.138957750052214,20.8705319580622,1,,,,,,,,238300,001,2025-08-14_11h35.44.693,tilt_staircase,2024.2.4,None,2025-08-14 11h35.50.997226 -0700,
,,,,,,,,,,,,,,,,,,,,,,,,,20.8744618750643,,,,,,,,,,,,,,,,,,,,,,,,,,,,,,,,,,,,,,,,,,,,,,,,,,,,,,,,,,,,,,,,,,,,high_start,50,20,30,-30,"[5, 2, 1, 0.5, 0.25, 0.1]",lin,1,1,7,0,3,4,down,5,10,20.87072920810897,20.8744618750643,20.8744618750643,21.36784845800139,21.36784845800139,21.43953345809132,21.43953345809132,21.43953345809132,21.372585750068538,22.191626000101678,1,,,,,,,,238300,001,2025-08-14_11h35.44.693,tilt_staircase,2024.2.4,None,2025-08-14 11h35.50.997226 -0700,
,,,,,,,,,,,,,,,,,,,,,,,,,22.20118991599884,,,,,,,,,,,,,,,,,,,,,,,,,,,,,,,,,,,,,,,,,,,,,,,,,,,,,,,,,,,,,,,,,,,,low_start,50,-20,30,-30,"[5, 2, 1, 0.5, 0.25, 0.1]",lin,1,1,7,1,3,5,up,5,-10,22.191804916015826,22.20118991599884,22.20118991599884,22.689542208099738,22.689542208099738,22.76777216605842,22.76777216605842,22.76777216605842,22.689542208099738,23.520531125017442,0,,,,,,,,238300,001,2025-08-14_11h35.44.693,tilt_staircase,2024.2.4,None,2025-08-14 11h35.50.997226 -0700,
,,,,,,,,,,,,,,,,,,,,,,,,,23.524443125003017,,,,,,,,,,,,,,,,,,,,,,,,,,,,,,,,,,,,,,,,,,,,,,,,,,,,,,,,,,,,,,,,,,,,high_start,50,20,30,-30,"[5, 2, 1, 0.5, 0.25, 0.1]",lin,1,1,7,0,4,6,down,5,5,23.52072662510909,23.524443125003017,23.524443125003017,24.01782200008165,24.01782200008165,24.088762625004165,24.088762625004165,24.088762625004165,24.02250937500503,24.903971833060496,1,,,,,,,,238300,001,2025-08-14_11h35.44.693,tilt_staircase,2024.2.4,None,2025-08-14 11h35.50.997226 -0700,
,,,,,,,,,,,,,,,,,,,,,,,,,24.907879875041544,,,,,,,,,,,,,,,,,,,,,,,,,,,,,,,,,,,,,,,,,,,,,,,,,,,,,,,,,,,,,,,,,,,,low_start,50,-20,30,-30,"[5, 2, 1, 0.5, 0.25, 0.1]",lin,1,1,7,1,4,7,up,5,-5,24.90415754111018,24.907879875041544,24.907879875041544,25.401212833006866,25.401212833006866,25.473066041013226,25.473066041013226,25.473066041013226,25.405986500089057,26.04374675010331,0,,,,,,,,238300,001,2025-08-14_11h35.44.693,tilt_staircase,2024.2.4,None,2025-08-14 11h35.50.997226 -0700,
,,,,,,,,,,,,,,,,,,,,,,,,,26.051092916051857,,,,,,,,,,,,,,,,,,,,,,,,,,,,,,,,,,,,,,,,,,,,,,,,,,,,,,,,,,,,,,,,,,,,low_start,50,-20,30,-30,"[5, 2, 1, 0.5, 0.25, 0.1]",lin,1,1,7,1,5,8,up,5,0,26.0440157080302,26.051092916051857,26.051092916051857,26.539285958046094,26.539285958046094,26.617718000081368,26.617718000081368,26.622371541103348,26.539285958046094,28.125173333100975,1,,,,,,,,238300,001,2025-08-14_11h35.44.693,tilt_staircase,2024.2.4,None,2025-08-14 11h35.50.997226 -0700,
,,,,,,,,,,,,,,,,,,,,,,,,,28.134365041041747,,,,,,,,,,,,,,,,,,,,,,,,,,,,,,,,,,,,,,,,,,,,,,,,,,,,,,,,,,,,,,,,,,,,high_start,50,20,30,-30,"[5, 2, 1, 0.5, 0.25, 0.1]",lin,1,1,7,0,5,9,down,5,0,28.12535808305256,28.134365041041747,28.134365041041747,28.62248362507671,28.62248362507671,28.701055958052166,28.701055958052166,28.701055958052166,28.62248362507671,31.3747755830409,1,,,,,,,,238300,001,2025-08-14_11h35.44.693,tilt_staircase,2024.2.4,None,2025-08-14 11h35.50.997226 -0700,
,,,,,,,,,,,,,,,,,,,,,,,,,31.384397333022207,,,,,,,,,,,,,,,,,,,,,,,,,,,,,,,,,,,,,,,,,,,,,,,,,,,,,,,,,,,,,,,,,,,,high_start,50,20,30,-30,"[5, 2, 1, 0.5, 0.25, 0.1]",lin,1,1,7,0,6,10,down,5,-5,31.374965208000503,31.384397333022207,31.384397333022207,31.87263287510723,31.87263287510723,31.9510715410579,31.9510715410579,31.9510715410579,31.87263287510723,32.67463662510272,0,,,,,,,,238300,001,2025-08-14_11h35.44.693,tilt_staircase,2024.2.4,None,2025-08-14 11h35.50.997226 -0700,
,,,,,,,,,,,,,,,,,,,,,,,,,32.684514208114706,,,,,,,,,,,,,,,,,,,,,,,,,,,,,,,,,,,,,,,,,,,,,,,,,,,,,,,,,,,,,,,,,,,,low_start,50,-20,30,-30,"[5, 2, 1, 0.5, 0.25, 0.1]",lin,1,1,7,1,6,11,down,2,-2,32.674806166091,32.684514208114706,32.684514208114706,33.172617125092074,33.172617125092074,33.25113537500147,33.25113537500147,33.25113537500147,33.172617125092074,33.97082900011446,0,,,,,,,,238300,001,2025-08-14_11h35.44.693,tilt_staircase,2024.2.4,None,2025-08-14 11h35.50.997226 -0700,
,,,,,,,,,,,,,,,,,,,,,,,,,33.97476383310277,,,,,,,,,,,,,,,,,,,,,,,,,,,,,,,,,,,,,,,,,,,,,,,,,,,,,,,,,,,,,,,,,,,,high_start,50,20,30,-30,"[5, 2, 1, 0.5, 0.25, 0.1]",lin,1,1,7,0,7,12,up,2,-3,33.971040500095114,33.97476383310277,33.97476383310277,34.467778583057225,34.467778583057225,34.53905875002965,34.53905875002965,34.53905875002965,34.47224420809653,35.25403850001749,0,,,,,,,,238300,001,2025-08-14_11h35.44.693,tilt_staircase,2024.2.4,None,2025-08-14 11h35.50.997226 -0700,
,,,,,,,,,,,,,,,,,,,,,,,,,35.258008250035346,,,,,,,,,,,,,,,,,,,,,,,,,,,,,,,,,,,,,,,,,,,,,,,,,,,,,,,,,,,,,,,,,,,,low_start,50,-20,30,-30,"[5, 2, 1, 0.5, 0.25, 0.1]",lin,1,1,7,1,7,13,up,1,-1,35.254231375060044,35.258008250035346,35.258008250035346,35.75111891608685,35.75111891608685,35.82202375004999,35.82202375004999,35.82202375004999,35.75589225010481,36.54141895810608,0,,,,,,,,238300,001,2025-08-14_11h35.44.693,tilt_staircase,2024.2.4,None,2025-08-14 11h35.50.997226 -0700,
,,,,,,,,,,,,,,,,,,,,,,,,,36.551060958066955,,,,,,,,,,,,,,,,,,,,,,,,,,,,,,,,,,,,,,,,,,,,,,,,,,,,,,,,,,,,,,,,,,,,high_start,50,20,30,-30,"[5, 2, 1, 0.5, 0.25, 0.1]",lin,1,1,7,0,8,14,up,2,-1,36.54161379102152,36.551060958066955,36.551060958066955,37.03930000006221,37.03930000006221,37.117771583027206,37.117771583027206,37.117771583027206,37.03930000006221,37.73736154101789,0,,,,,,,,238300,001,2025-08-14_11h35.44.693,tilt_staircase,2024.2.4,None,2025-08-14 11h35.50.997226 -0700,
,,,,,,,,,,,,,,,,,,,,,,,,,37.74130562506616,,,,,,,,,,,,,,,,,,,,,,,,,,,,,,,,,,,,,,,,,,,,,,,,,,,,,,,,,,,,,,,,,,,,low_start,50,-20,30,-30,"[5, 2, 1, 0.5, 0.25, 0.1]",lin,1,1,7,1,8,15,up,1,0,37.73754750005901,37.74130562506616,37.74130562506616,38.234423291054554,38.234423291054554,38.305768875055946,38.305768875055946,38.305768875055946,38.239036333048716,40.72056945809163,1,,,,,,,,238300,001,2025-08-14_11h35.44.693,tilt_staircase,2024.2.4,None,2025-08-14 11h35.50.997226 -0700,
,,,,,,,,,,,,,,,,,,,,,,,,,40.72449054103345,,,,,,,,,,,,,,,,,,,,,,,,,,,,,,,,,,,,,,,,,,,,,,,,,,,,,,,,,,,,,,,,,,,,high_start,50,20,30,-30,"[5, 2, 1, 0.5, 0.25, 0.1]",lin,1,1,7,0,9,16,up,2,1,40.72077854105737,40.72449054103345,40.72449054103345,41.21766541607212,41.21766541607212,41.28911858308129,41.28911858308129,41.28911858308129,41.222376833087765,42.937102666008286,0,,,,,,,,238300,001,2025-08-14_11h35.44.693,tilt_staircase,2024.2.4,None,2025-08-14 11h35.50.997226 -0700,
,,,,,,,,,,,,,,,,,,,,,,,,,42.94099233311135,,,,,,,,,,,,,,,,,,,,,,,,,,,,,,,,,,,,,,,,,,,,,,,,,,,,,,,,,,,,,,,,,,,,low_start,50,-20,30,-30,"[5, 2, 1, 0.5, 0.25, 0.1]",lin,1,1,7,1,9,17,down,0.5,-0.5,42.937292125076056,42.94099233311135,42.94099233311135,43.43431762501132,43.43431762501132,43.50547537510283,43.50547537510283,43.50547537510283,43.439124374999665,44.13688958308194,0,,,,,,,,238300,001,2025-08-14_11h35.44.693,tilt_staircase,2024.2.4,None,2025-08-14 11h35.50.997226 -0700,
,,,,,,,,,,,,,,,,,,,,,,,,,44.14055454102345,,,,,,,,,,,,,,,,,,,,,,,,,,,,,,,,,,,,,,,,,,,,,,,,,,,,,,,,,,,,,,,,,,,,low_start,50,-20,30,-30,"[5, 2, 1, 0.5, 0.25, 0.1]",lin,1,1,7,1,10,18,up,0.25,-0.25,44.13706912507769,44.14055454102345,44.14055454102345,44.63441850000527,44.63441850000527,44.70515058306046,44.70515058306046,44.70515058306046,44.6388718750095,45.303766666096635,0,,,,,,,,238300,001,2025-08-14_11h35.44.693,tilt_staircase,2024.2.4,None,2025-08-14 11h35.50.997226 -0700,
,,,,,,,,,,,,,,,,,,,,,,,,,45.307617041049525,,,,,,,,,,,,,,,,,,,,,,,,,,,,,,,,,,,,,,,,,,,,,,,,,,,,,,,,,,,,,,,,,,,,high_start,50,20,30,-30,"[5, 2, 1, 0.5, 0.25, 0.1]",lin,1,1,7,0,10,19,up,2,3,45.3039537910372,45.307617041049525,45.307617041049525,45.80109495809302,45.80109495809302,45.87214412505273,45.87214412505273,45.87214412505273,45.8055233330233,46.54163850005716,1,,,,,,,,238300,001,2025-08-14_11h35.44.693,tilt_staircase,2024.2.4,None,2025-08-14 11h35.50.997226 -0700,
,,,,,,,,,,,,,,,,,,,,,,,,,46.55104975006543,,,,,,,,,,,,,,,,,,,,,,,,,,,,,,,,,,,,,,,,,,,,,,,,,,,,,,,,,,,,,,,,,,,,low_start,50,-20,30,-30,"[5, 2, 1, 0.5, 0.25, 0.1]",lin,1,1,7,1,11,20,up,0.25,0.0,46.54183191608172,46.55104975006543,46.55104975006543,47.03909812506754,47.03909812506754,47.11780625011306,47.11780625011306,47.11780625011306,47.03909812506754,47.86007870803587,1,,,,,,,,238300,001,2025-08-14_11h35.44.693,tilt_staircase,2024.2.4,None,2025-08-14 11h35.50.997226 -0700,
,,,,,,,,,,,,,,,,,,,,,,,,,47.868105375091545,,,,,,,,,,,,,,,,,,,,,,,,,,,,,,,,,,,,,,,,,,,,,,,,,,,,,,,,,,,,,,,,,,,,high_start,50,20,30,-30,"[5, 2, 1, 0.5, 0.25, 0.1]",lin,1,1,7,0,11,21,down,1,2,47.860340208048,47.868105375091545,47.868105375091545,48.35529833310284,48.35529833310284,48.434385708067566,48.434385708067566,48.438805041019805,48.35529833310284,49.05392695800401,1,,,,,,,,238300,001,2025-08-14_11h35.44.693,tilt_staircase,2024.2.4,None,2025-08-14 11h35.50.997226 -0700,
,,,,,,,,,,,,,,,,,,,,,,,,,49.057993125054054,,,,,,,,,,,,,,,,,,,,,,,,,,,,,,,,,,,,,,,,,,,,,,,,,,,,,,,,,,,,,,,,,,,,high_start,50,20,30,-30,"[5, 2, 1, 0.5, 0.25, 0.1]",lin,1,1,7,0,12,22,down,1,1,49.05411000002641,49.057993125054054,49.057993125054054,49.55116033309605,49.55116033309605,49.62244908302091,49.62244908302091,49.62244908302091,49.556033166009,50.287359708105214,1,,,,,,,,238300,001,2025-08-14_11h35.44.693,tilt_staircase,2024.2.4,None,2025-08-14 11h35.50.997226 -0700,
,,,,,,,,,,,,,,,,,,,,,,,,,50.29135325003881,,,,,,,,,,,,,,,,,,,,,,,,,,,,,,,,,,,,,,,,,,,,,,,,,,,,,,,,,,,,,,,,,,,,low_start,50,-20,30,-30,"[5, 2, 1, 0.5, 0.25, 0.1]",lin,1,1,7,1,12,23,down,0.1,-0.1,50.28754045802634,50.29135325003881,50.29135325003881,50.784382791025564,50.784382791025564,50.85537245811429,50.85537245811429,50.85537245811429,50.788907333044335,55.19126608304214,1,,,,,,,,238300,001,2025-08-14_11h35.44.693,tilt_staircase,2024.2.4,None,2025-08-14 11h35.50.997226 -0700,
,,,,,,,,,,,,,,,,,,,,,,,,,55.20105820801109,,,,,,,,,,,,,,,,,,,,,,,,,,,,,,,,,,,,,,,,,,,,,,,,,,,,,,,,,,,,,,,,,,,,high_start,50,20,30,-30,"[5, 2, 1, 0.5, 0.25, 0.1]",lin,1,1,7,0,13,24,down,1,0,55.19144879106898,55.20105820801109,55.20105820801109,55.68918416602537,55.68918416602537,55.76777308306191,55.76777308306191,55.76777308306191,55.68918416602537,56.52490325004328,0,,,,,,,,238300,001,2025-08-14_11h35.44.693,tilt_staircase,2024.2.4,None,2025-08-14 11h35.50.997226 -0700,
,,,,,,,,,,,,,,,,,,,,,,,,,56.53437075007241,,,,,,,,,,,,,,,,,,,,,,,,,,,,,,,,,,,,,,,,,,,,,,,,,,,,,,,,,,,,,,,,,,,,low_start,50,-20,30,-30,"[5, 2, 1, 0.5, 0.25, 0.1]",lin,1,1,7,1,13,25,down,0.1,-0.2,56.52509541600011,56.53437075007241,56.53437075007241,57.02248320810031,57.02248320810031,57.10093187505845,57.10093187505845,57.10093187505845,57.02248320810031,57.653754833037965,0,,,,,,,,238300,001,2025-08-14_11h35.44.693,tilt_staircase,2024.2.4,None,2025-08-14 11h35.50.997226 -0700,
,,,,,,,,,,,,,,,,,,,,,,,,,57.65770900005009,,,,,,,,,,,,,,,,,,,,,,,,,,,,,,,,,,,,,,,,,,,,,,,,,,,,,,,,,,,,,,,,,,,,low_start,50,-20,30,-30,"[5, 2, 1, 0.5, 0.25, 0.1]",lin,1,1,7,1,14,26,up,0.1,-0.1,57.65394941600971,57.65770900005009,57.65770900005009,58.15102850005496,58.15102850005496,58.22231716604438,58.22231716604438,58.22231716604438,58.15559329104144,59.410483958083205,0,,,,,,,,238300,001,2025-08-14_11h35.44.693,tilt_staircase,2024.2.4,None,2025-08-14 11h35.50.997226 -0700,
,,,,,,,,,,,,,,,,,,,,,,,,,59.417948833084665,,,,,,,,,,,,,,,,,,,,,,,,,,,,,,,,,,,,,,,,,,,,,,,,,,,,,,,,,,,,,,,,,,,,high_start,50,20,30,-30,"[5, 2, 1, 0.5, 0.25, 0.1]",lin,1,1,7,0,14,27,up,0.5,0.5,59.41069620801136,59.417948833084665,59.417948833084665,59.90564887505025,59.90564887505025,59.98443654109724,59.98443654109724,59.988745791022666,59.90564887505025,61.820376333082095,0,,,,,,,,238300,001,2025-08-14_11h35.44.693,tilt_staircase,2024.2.4,None,2025-08-14 11h35.50.997226 -0700,
,,,,,,,,,,,,,,,,,,,,,,,,,61.82431754108984,,,,,,,,,,,,,,,,,,,,,,,,,,,,,,,,,,,,,,,,,,,,,,,,,,,,,,,,,,,,,,,,,,,,high_start,50,20,30,-30,"[5, 2, 1, 0.5, 0.25, 0.1]",lin,1,1,7,0,15,28,up,0.5,1.0,61.82057116611395,61.82431754108984,61.82431754108984,62.31772254104726,62.31772254104726,62.38871045806445,62.38871045806445,62.38871045806445,62.32226758310571,64.13697404100094,1,,,,,,,,238300,001,2025-08-14_11h35.44.693,tilt_staircase,2024.2.4,None,2025-08-14 11h35.50.997226 -0700,
,,,,,,,,,,,,,,,,,,,,,,,,,64.14092645805795,,,,,,,,,,,,,,,,,,,,,,,,,,,,,,,,,,,,,,,,,,,,,,,,,,,,,,,,,,,,,,,,,,,,low_start,50,-20,30,-30,"[5, 2, 1, 0.5, 0.25, 0.1]",lin,1,1,7,1,15,29,up,0.1,0.0,64.13716879102867,64.14092645805795,64.14092645805795,64.63437170803081,64.63437170803081,64.70559745805804,64.70559745805804,64.70559745805804,64.6389028331032,65.45391300006304,1,,,,,,,,238300,001,2025-08-14_11h35.44.693,tilt_staircase,2024.2.4,None,2025-08-14 11h35.50.997226 -0700,
,,,,,,,,,,,,,,,,,,,,,,,,,65.45795200008433,,,,,,,,,,,,,,,,,,,,,,,,,,,,,,,,,,,,,,,,,,,,,,,,,,,,,,,,,,,,,,,,,,,,high_start,50,20,30,-30,"[5, 2, 1, 0.5, 0.25, 0.1]",lin,1,1,7,0,16,30,down,0.25,0.75,65.45411308307666,65.45795200008433,65.45795200008433,65.95095495809801,65.95095495809801,66.022733291029,66.022733291029,66.022733291029,65.9554784160573,66.6370517500909,1,,,,,,,,238300,001,2025-08-14_11h35.44.693,tilt_staircase,2024.2.4,None,2025-08-14 11h35.50.997226 -0700,
,,,,,,,,,,,,,,,,,,,,,,,,,66.64090100000612,,,,,,,,,,,,,,,,,,,,,,,,,,,,,,,,,,,,,,,,,,,,,,,,,,,,,,,,,,,,,,,,,,,,low_start,50,-20,30,-30,"[5, 2, 1, 0.5, 0.25, 0.1]",lin,1,1,7,1,16,31,down,0.1,-0.1,66.63723537500482,66.64090100000612,66.64090100000612,67.13432483305223,67.13432483305223,67.2055502081057,67.2055502081057,67.2055502081057,67.13917062501423,68.90444620803464,1,,,,,,,,238300,001,2025-08-14_11h35.44.693,tilt_staircase,2024.2.4,None,2025-08-14 11h35.50.997226 -0700,
,,,,,,,,,,,,,,,,,,,,,,,,,68.90872458310332,,,,,,,,,,,,,,,,,,,,,,,,,,,,,,,,,,,,,,,,,,,,,,,,,,,,,,,,,,,,,,,,,,,,high_start,50,20,30,-30,"[5, 2, 1, 0.5, 0.25, 0.1]",lin,1,1,7,0,17,32,down,0.25,0.5,68.90467700001318,68.90872458310332,68.90872458310332,69.40104520809837,69.40104520809837,69.47305225010496,69.47305225010496,69.47305225010496,69.40598137502093,70.30356091610156,1,,,,,,,,238300,001,2025-08-14_11h35.44.693,tilt_staircase,2024.2.4,None,2025-08-14 11h35.50.997226 -0700,
,,,,,,,,,,,,,,,,,,,,,,,,,70.30736266600434,,,,,,,,,,,,,,,,,,,,,,,,,,,,,,,,,,,,,,,,,,,,,,,,,,,,,,,,,,,,,,,,,,,,low_start,50,-20,30,-30,"[5, 2, 1, 0.5, 0.25, 0.1]",lin,1,1,7,1,17,33,down,0.1,-0.2,70.30376237502787,70.30736266600434,70.30736266600434,70.80105829110835,70.80105829110835,70.87219225009903,70.87219225009903,70.87219225009903,70.80576220806688,71.62483620806597,0,,,,,,,,238300,001,2025-08-14_11h35.44.693,tilt_staircase,2024.2.4,None,2025-08-14 11h35.50.997226 -0700,
,,,,,,,,,,,,,,,,,,,,,,,,,71.63430745806545,,,,,,,,,,,,,,,,,,,,,,,,,,,,,,,,,,,,,,,,,,,,,,,,,,,,,,,,,,,,,,,,,,,,high_start,50,20,30,-30,"[5, 2, 1, 0.5, 0.25, 0.1]",lin,1,1,7,0,18,34,down,0.25,0.25,71.62502458307426,71.63430745806545,71.63430745806545,72.12236429110635,72.12236429110635,72.20097237511072,72.20097237511072,72.20097237511072,72.12236429110635,73.07031362503767,1,,,,,,,,238300,001,2025-08-14_11h35.44.693,tilt_staircase,2024.2.4,None,2025-08-14 11h35.50.997226 -0700,
,,,,,,,,,,,,,,,,,,,,,,,,,73.07419595809188,,,,,,,,,,,,,,,,,,,,,,,,,,,,,,,,,,,,,,,,,,,,,,,,,,,,,,,,,,,,,,,,,,,,low_start,50,-20,30,-30,"[5, 2, 1, 0.5, 0.25, 0.1]",lin,1,1,7,1,18,35,up,0.1,-0.1,73.07049566600472,73.07419595809188,73.07419595809188,73.56765891599935,73.56765891599935,73.63897083303891,73.63897083303891,73.63897083303891,73.57239779108204,74.60400383302476,1,,,,,,,,238300,001,2025-08-14_11h35.44.693,tilt_staircase,2024.2.4,None,2025-08-14 11h35.50.997226 -0700,
,,,,,,,,,,,,,,,,,,,,,,,,,74.60798529104795,,,,,,,,,,,,,,,,,,,,,,,,,,,,,,,,,,,,,,,,,,,,,,,,,,,,,,,,,,,,,,,,,,,,low_start,50,-20,30,-30,"[5, 2, 1, 0.5, 0.25, 0.1]",lin,1,1,7,1,19,36,down,0.1,-0.2,74.60421754105482,74.60798529104795,74.60798529104795,75.10088966600597,75.10088966600597,75.17237191600725,75.17237191600725,75.17237191600725,75.10544208309148,76.17054845800158,1,,,,,,,,238300,001,2025-08-14_11h35.44.693,tilt_staircase,2024.2.4,None,2025-08-14 11h35.50.997226 -0700,
,,,,,,,,,,,,,,,,,,,,,,,,,76.1746656660689,,,,,,,,,,,,,,,,,,,,,,,,,,,,,,,,,,,,,,,,,,,,,,,,,,,,,,,,,,,,,,,,,,,,high_start,50,20,30,-30,"[5, 2, 1, 0.5, 0.25, 0.1]",lin,1,1,7,0,19,37,down,0.25,0.0,76.17075124999974,76.1746656660689,76.1746656660689,76.66768612503074,76.66768612503074,76.73924670810811,76.73924670810811,76.73924670810811,76.67265512503218,77.43691120808944,1,,,,,,,,238300,001,2025-08-14_11h35.44.693,tilt_staircase,2024.2.4,None,2025-08-14 11h35.50.997226 -0700,
,,,,,,,,,,,,,,,,,,,,,,,,,77.44074445799924,,,,,,,,,,,,,,,,,,,,,,,,,,,,,,,,,,,,,,,,,,,,,,,,,,,,,,,,,,,,,,,,,,,,low_start,50,-20,30,-30,"[5, 2, 1, 0.5, 0.25, 0.1]",lin,1,1,7,1,20,38,down,0.1,-0.30000000000000004,77.43709487502929,77.44074445799924,77.44074445799924,77.93432391609531,77.93432391609531,78.00509783311281,78.00509783311281,78.00509783311281,77.93887287506368,78.65802812506445,0,,,,,,,,238300,001,2025-08-14_11h35.44.693,tilt_staircase,2024.2.4,None,2025-08-14 11h35.50.997226 -0700,
,,,,,,,,,,,,,,,,,,,,,,,,,78.66760470811278,,,,,,,,,,,,,,,,,,,,,,,,,,,,,,,,,,,,,,,,,,,,,,,,,,,,,,,,,,,,,,,,,,,,high_start,50,20,30,-30,"[5, 2, 1, 0.5, 0.25, 0.1]",lin,1,1,7,0,20,39,down,0.25,-0.25,78.65819945803378,78.66760470811278,78.66760470811278,79.15563504106831,79.15563504106831,79.23434991610702,79.23434991610702,79.23434991610702,79.15563504106831,79.82051533309277,0,,,,,,,,238300,001,2025-08-14_11h35.44.693,tilt_staircase,2024.2.4,None,2025-08-14 11h35.50.997226 -0700,
,,,,,,,,,,,,,,,,,,,,,,,,,79.82439300010446,,,,,,,,,,,,,,,,,,,,,,,,,,,,,,,,,,,,,,,,,,,,,,,,,,,,,,,,,,,,,,,,,,,,high_start,50,20,30,-30,"[5, 2, 1, 0.5, 0.25, 0.1]",lin,1,1,7,0,21,40,up,0.1,-0.15,79.82070883305278,79.82439300010446,79.82439300010446,80.31755712500308,80.31755712500308,80.38896491611376,80.38896491611376,80.38896491611376,80.32196612504777,81.33707808307372,0,,,,,,,,238300,001,2025-08-14_11h35.44.693,tilt_staircase,2024.2.4,None,2025-08-14 11h35.50.997226 -0700,
,,,,,,,,,,,,,,,,,,,,,,,,,81.34099704108667,,,,,,,,,,,,,,,,,,,,,,,,,,,,,,,,,,,,,,,,,,,,,,,,,,,,,,,,,,,,,,,,,,,,low_start,50,-20,30,-30,"[5, 2, 1, 0.5, 0.25, 0.1]",lin,1,1,7,1,21,41,up,0.1,-0.20000000000000004,81.33727454103064,81.34099704108667,81.34099704108667,81.8341947500594,81.8341947500594,81.90572175011039,81.90572175011039,81.90572175011039,81.83885354106314,82.9409994580783,0,,,,,,,,238300,001,2025-08-14_11h35.44.693,tilt_staircase,2024.2.4,None,2025-08-14 11h35.50.997226 -0700,
,,,,,,,,,,,,,,,,,,,,,,,,,82.95098025002517,,,,,,,,,,,,,,,,,,,,,,,,,,,,,,,,,,,,,,,,,,,,,,,,,,,,,,,,,,,,,,,,,,,,high_start,50,20,30,-30,"[5, 2, 1, 0.5, 0.25, 0.1]",lin,1,1,7,0,22,42,up,0.1,-0.04999999999999999,82.94118166610133,82.95098025002517,82.95098025002517,83.4388565410627,83.4388565410627,83.51763466605917,83.51763466605917,83.51763466605917,83.4388565410627,84.4206075000111,1,,,,,,,,238300,001,2025-08-14_11h35.44.693,tilt_staircase,2024.2.4,None,2025-08-14 11h35.50.997226 -0700,
,,,,,,,,,,,,,,,,,,,,,,,,,84.42488704109564,,,,,,,,,,,,,,,,,,,,,,,,,,,,,,,,,,,,,,,,,,,,,,,,,,,,,,,,,,,,,,,,,,,,low_start,50,-20,30,-30,"[5, 2, 1, 0.5, 0.25, 0.1]",lin,1,1,7,1,22,43,up,0.1,-0.10000000000000003,84.42081825004425,84.42488704109564,84.42488704109564,84.91767895803787,84.91767895803787,84.98871670803055,84.98871670803055,84.98871670803055,84.92213616601657,85.88698445807677,0,,,,,,,,238300,001,2025-08-14_11h35.44.693,tilt_staircase,2024.2.4,None,2025-08-14 11h35.50.997226 -0700,
,,,,,,,,,,,,,,,,,,,,,,,,,85.89090320805553,,,,,,,,,,,,,,,,,,,,,,,,,,,,,,,,,,,,,,,,,,,,,,,,,,,,,,,,,,,,,,,,,,,,high_start,50,20,30,-30,"[5, 2, 1, 0.5, 0.25, 0.1]",lin,1,1,7,0,23,44,down,0.1,-0.15,85.88719458307605,85.89090320805553,85.89090320805553,86.38437283306848,86.38437283306848,86.45556254102848,86.45556254102848,86.45556254102848,86.38905475009233,88.15368633309845,0,,,,,,,,238300,001,2025-08-14_11h35.44.693,tilt_staircase,2024.2.4,None,2025-08-14 11h35.50.997226 -0700,
,,,,,,,,,,,,,,,,,,,,,,,,,88.15765766601544,,,,,,,,,,,,,,,,,,,,,,,,,,,,,,,,,,,,,,,,,,,,,,,,,,,,,,,,,,,,,,,,,,,,low_start,50,-20,30,-30,"[5, 2, 1, 0.5, 0.25, 0.1]",lin,1,1,7,1,23,45,up,0.1,-2.7755575615628914e-17,88.153875833028,88.15765766601544,88.15765766601544,88.65095429110806,88.65095429110806,88.72199091606308,88.72199091606308,88.72199091606308,88.655766083044,90.38690383301582,1,,,,,,,,238300,001,2025-08-14_11h35.44.693,tilt_staircase,2024.2.4,None,2025-08-14 11h35.50.997226 -0700,
,,,,,,,,,,,,,,,,,,,,,,,,,90.39074245805386,,,,,,,,,,,,,,,,,,,,,,,,,,,,,,,,,,,,,,,,,,,,,,,,,,,,,,,,,,,,,,,,,,,,high_start,50,20,30,-30,"[5, 2, 1, 0.5, 0.25, 0.1]",lin,1,1,7,0,24,46,up,0.1,-0.04999999999999999,90.38708525011316,90.39074245805386,90.39074245805386,90.88428704102989,90.88428704102989,90.95526187506039,90.95526187506039,90.95526187506039,90.88876320805866,92.18768320803065,0,,,,,,,,238300,001,2025-08-14_11h35.44.693,tilt_staircase,2024.2.4,None,2025-08-14 11h35.50.997226 -0700,
,,,,,,,,,,,,,,,,,,,,,,,,,92.19197583303321,,,,,,,,,,,,,,,,,,,,,,,,,,,,,,,,,,,,,,,,,,,,,,,,,,,,,,,,,,,,,,,,,,,,low_start,50,-20,30,-30,"[5, 2, 1, 0.5, 0.25, 0.1]",lin,1,1,7,1,24,47,down,0.1,-0.10000000000000003,92.1878872080706,92.19197583303321,92.19197583303321,92.68424429104198,92.68424429104198,92.75613733311184,92.75613733311184,92.75613733311184,92.68899154104292,93.38810537511017,0,,,,,,,,238300,001,2025-08-14_11h35.44.693,tilt_staircase,2024.2.4,None,2025-08-14 11h35.50.997226 -0700,
,,,,,,,,,,,,,,,,,,,,,,,,,93.39387887506746,,,,,,,,,,,,,,,,,,,,,,,,,,,,,,,,,,,,,,,,,,,,,,,,,,,,,,,,,,,,,,,,,,,,high_start,50,20,30,-30,"[5, 2, 1, 0.5, 0.25, 0.1]",lin,1,1,7,0,25,48,up,0.1,0.05000000000000002,93.38832695805468,93.39387887506746,93.39387887506746,93.88423662504647,93.88423662504647,93.95546845800709,93.95546845800709,93.95546845800709,93.88908450002782,94.75360108306631,1,,,,,,,,238300,001,2025-08-14_11h35.44.693,tilt_staircase,2024.2.4,None,2025-08-14 11h35.50.997226 -0700,
,,,,,,,,,,,,,,,,,,,,,,,,,94.75744700001087,,,,,,,,,,,,,,,,,,,,,,,,,,,,,,,,,,,,,,,,,,,,,,,,,,,,,,,,,,,,,,,,,,,,low_start,50,-20,30,-30,"[5, 2, 1, 0.5, 0.25, 0.1]",lin,1,1,7,1,25,49,up,0.1,-2.7755575615628914e-17,94.75378320808522,94.75744700001087,94.75744700001087,95.2509245830588,95.2509245830588,95.3219792500604,95.3219792500604,95.3219792500604,95.25533304107375,96.05367350007873,1,,,,,,,,238300,001,2025-08-14_11h35.44.693,tilt_staircase,2024.2.4,None,2025-08-14 11h35.50.997226 -0700,
,,,,,,,,,,,,,,,,,,,,,,,,,,,,,,,,,,,,,,,,,,,,,,,,,,,,,,,,,,,,,,,,,,,,,,,,,,,,,,,,,,,,,,,,,,,,,,,,,,,,,,,,,,,,,,,,,,,,,,,,96.05374470807146,96.05806045804638,96.05806045804638,97.12027058308013,space,1.0520679999608546,None,238300,001,2025-08-14_11h35.44.693,tilt_staircase,2024.2.4,None,2025-08-14 11h35.50.997226 -0700,
