center,surround,correct,thisN,thisTrialN,thisRepN,key_resp_3.keys,key_resp_3.corr,key_resp_3.rt,key_resp_3.duration,opacity,key_resp_4.keys,key_resp_4.corr,key_resp_4.rt,key_resp_4.duration,practice_no_time.thisRepN,practice_no_time.thisTrialN,practice_no_time.thisN,practice_no_time.thisIndex,practice_timed.thisRepN,practice_timed.thisTrialN,practice_timed.thisN,practice_timed.thisIndex,thisRow.t,notes,instr.started,text_5.started,key_resp_2.started,instr.stopped,key_resp_2.keys,key_resp_2.rt,key_resp_2.duration,instr2.started,text_6.started,key_resp_6.started,instr2.stopped,key_resp_6.keys,key_resp_6.rt,key_resp_6.duration,test.started,surround_practice_3.started,center_practice_3.started,key_resp_7.started,test.stopped,key_resp_7.keys,key_resp_7.rt,key_resp_7.duration,practice_trial.started,key_resp_3.started,surround_practice.started,center_practice.started,practice_trial.stopped,practice_no_time.key_resp_3.keys,practice_no_time.key_resp_3.corr,practice_no_time.key_resp_3.rt,practice_no_time.key_resp_3.duration,practice_feedback.started,text_7.started,practice_feedback.stopped,text_7.stopped,text_11.started,surround_practice.stopped,center_practice.stopped,instr3.started,text_8.started,key_resp_5.started,instr3.stopped,key_resp_5.keys,key_resp_5.rt,key_resp_5.duration,practice_trial_timed.started,key_resp_4.started,surround_practice_2.started,center_practice_2.started,surround_practice_2.stopped,center_practice_2.stopped,text_12.started,practice_trial_timed.stopped,practice_timed.key_resp_4.keys,practice_timed.key_resp_4.corr,practice_timed.key_resp_4.rt,practice_timed.key_resp_4.duration,start_instr.started,text_13.started,key_resp_8.started,start_instr.stopped,key_resp_8.keys,key_resp_8.rt,key_resp_8.duration,trials.label,trials.nReps,trials.startVal,trials.maxVal,trials.minVal,trials.stepSizes,trials.stepType,trials.nUp,trials.nDown,trials.nReversals,trials.thisIndex,trials.thisRepN,trials.thisN,trials.direction,trials.stepSize,trials.intensity,surround_angle,trial.started,resp.started,surround_grating.started,center_grating.started,surround_grating.stopped,center_grating.stopped,text_3.started,trial.stopped,trials.response,end.started,text_4.started,key_resp.started,end.stopped,key_resp.keys,key_resp.rt,key_resp.duration,participant,session,date,expName,psychopyVersion,frameRate,expStart
,,,,,,,,,,,,,,,,,,,,,,,,,0.010983500047586858,0.027011583,0.027011583,21.821768458001316,space,21.783604917000048,None,,,,,,,,,,,,,,,,,,,,,,,,,,,,,,,,,,,,,,,,,,,,,,,,,,,,,,,,,,,,,,,,,,,,,,,,,,,,,,,,,,,,,,,,,,,343263,001,2025-08-14_20h51.56.267,tilt_staircase,2024.2.4,None,2025-08-14 20h52.14.723332 -0700
,,,,,,,,,,,,,,,,,,,,,,,,,,,,,,,,21.821883416036144,21.838316833018325,21.838316833018325,25.503909083083272,space,3.6600523749366403,None,,,,,,,,,,,,,,,,,,,,,,,,,,,,,,,,,,,,,,,,,,,,,,,,,,,,,,,,,,,,,,,,,,,,,,,,,,,,,,,,,,,,343263,001,2025-08-14_20h51.56.267,tilt_staircase,2024.2.4,None,2025-08-14 20h52.14.723332 -0700
,,,,,,,,,,,,,,,,,,,,,,,,,,,,,,,,,,,,,,,25.504782999982126,25.523780875024386,25.523780875024386,25.523780875024386,29.748310416005552,space,4.2132160409819335,None,,,,,,,,,,,,,,,,,,,,,,,,,,,,,,,,,,,,,,,,,,,,,,,,,,,,,,,,,,,,,,,,,,,,,,,,,,,,343263,001,2025-08-14_20h51.56.267,tilt_staircase,2024.2.4,None,2025-08-14 20h52.14.723332 -0700
30,0,right,0,0,0,right,1,1.2917531669372693,None,,,,,,0,0,0,0,,,,,29.767304750042967,,,,,,,,,,,,,,,,,,,,,,,,29.762975958059542,29.767304750042967,30.24751620797906,30.24751620797906,31.061088583082892,right,1,1.2917531669372693,None,31.066775375045836,31.120634208084084,32.569499999983236,,,,,,,,,,,,,,,,,,,,,,,,,,,,,,,,,,,,,,,,,,,,,,,,,,,,,,,,,,,,,,,,343263,001,2025-08-14_20h51.56.267,tilt_staircase,2024.2.4,None,2025-08-14 20h52.14.723332 -0700
-30,0,left,1,1,0,left,1,1.1972952079959214,None,,,,,,0,1,1,1,,,,,32.57584058307111,,,,,,,,,,,,,,,,,,,,,,,,32.57063879107591,32.57584058307111,33.06006704107858,33.06006704107858,33.77605862508062,left,1,1.1972952079959214,None,33.776152416015975,33.784605790977366,35.26940458302852,35.27401838,,,,,,,,,,,,,,,,,,,,,,,,,,,,,,,,,,,,,,,,,,,,,,,,,,,,,,,,,,,,,,,343263,001,2025-08-14_20h51.56.267,tilt_staircase,2024.2.4,None,2025-08-14 20h52.14.723332 -0700
30,60,right,2,2,0,right,1,2.3466113329632208,None,,,,,,0,2,2,2,,,,,35.27401838,,,,,,,,,,,,,,,,,,,,,,,,35.27046024997253,35.27401838,35.77707441605162,35.77707441605162,37.62804729107302,right,1,2.3466113329632208,None,37.62818104098551,37.652378499973565,39.13546191598289,,36.768392083002254,36.77250870806165,36.77250870806165,,,,,,,,,,,,,,,,,,,,,,,,,,,,,,,,,,,,,,,,,,,,,,,,,,,,,,,,,,,,343263,001,2025-08-14_20h51.56.267,tilt_staircase,2024.2.4,None,2025-08-14 20h52.14.723332 -0700
-30,-60,left,3,3,0,left,1,1.2260207920335233,None,,,,,,0,3,3,3,,,,,39.139705208013766,,,,,,,,,,,,,,,,,,,,,,,,39.136306458036415,39.139705208013766,39.63527516601607,39.63527516601607,40.369151166058145,left,1,1.2260207920335233,None,40.36919958307408,40.3736065,41.85875804105308,41.86836449999828,,,,,,,,,,,,,,,,,,,,,,,,,,,,,,,,,,,,,,,,,,,,,,,,,,,,,,,,,,,,,,,343263,001,2025-08-14_20h51.56.267,tilt_staircase,2024.2.4,None,2025-08-14 20h52.14.723332 -0700
,,,,,,,,,,,,,,,,,,,,,,,,,,,,,,,,,,,,,,,,,,,,,,,,,,,,,,,,,,,,,,,41.85893466603011,41.86836449999828,41.86836449999828,43.00365533307195,space,1.125275959027931,None,,,,,,,,,,,,,,,,,,,,,,,,,,,,,,,,,,,,,,,,,,,,,,,,,,,,,343263,001,2025-08-14_20h51.56.267,tilt_staircase,2024.2.4,None,2025-08-14 20h52.14.723332 -0700
-30,-60,left,0,0,0,,,,,100,left,1,1.4605994999874383,None,,,,,0,0,0,0,43.020441208034754,,,,,,,,,,,,,,,,,,,,,,,,,,,,,,,,,44.48845545807853,44.49514745804481,45.98624638,45.99155662499834,,,,,,,,,,,43.012977458070964,43.020441208034754,43.49754374998156,43.49754374998156,43.575767582980916,43.575767582980916,43.575767582980916,44.48833762505092,left,1,1.4605994999874383,None,,,,,,,,,,,,,,,,,,,,,,,,,,,,,,,,,,,,,,,,,343263,001,2025-08-14_20h51.56.267,tilt_staircase,2024.2.4,None,2025-08-14 20h52.14.723332 -0700
-30,0,left,1,1,0,,,,,100,left,1,1.1915656669298187,None,,,,,0,1,1,1,45.99155662499834,,,,,,,,,,,,,,,,,,,,,,,,,,,,,,,,,47.18833908298984,47.19527145801112,48.68592191603966,48.690867125056684,,,,,,,,,,,45.986794125055894,45.99155662499834,46.48482737503946,46.48482737503946,46.55652933300007,46.55652933300007,46.55652933300007,47.188215791014954,left,1,1.1915656669298187,None,,,,,,,,,,,,,,,,,,,,,,,,,,,,,,,,,,,,,,,,,343263,001,2025-08-14_20h51.56.267,tilt_staircase,2024.2.4,None,2025-08-14 20h52.14.723332 -0700
30,60,right,2,2,0,,,,,100,right,1,1.1123590840725228,None,,,,,0,2,2,2,48.690867125056684,,,,,,,,,,,,,,,,,,,,,,,,,,,,,,,,,49.81264233298134,49.81785366602708,51.30377570807468,51.30904558300972,,,,,,,,,,,48.686484041041695,48.690867125056684,49.18494166608434,49.18494166608434,49.25845395808574,49.25845395808574,49.25845395808574,49.812542791012675,right,1,1.1123590840725228,None,,,,,,,,,,,,,,,,,,,,,,,,,,,,,,,,,,,,,,,,,343263,001,2025-08-14_20h51.56.267,tilt_staircase,2024.2.4,None,2025-08-14 20h52.14.723332 -0700
30,0,right,3,3,0,,,,,100,right,1,1.3781310840277001,None,,,,,0,3,3,3,51.30904558300972,,,,,,,,,,,,,,,,,,,,,,,,,,,,,,,,,52.69646391598508,52.701057208003476,54.18614154099487,54.19074062502477,,,,,,,,,,,51.30428787507117,51.30904558300972,51.810117833083495,51.810117833083495,51.886034165974706,51.886034165974706,51.89222654106561,52.69635433307849,right,1,1.3781310840277001,None,,,,,,,,,,,,,,,,,,,,,,,,,,,,,,,,,,,,,,,,,343263,001,2025-08-14_20h51.56.267,tilt_staircase,2024.2.4,None,2025-08-14 20h52.14.723332 -0700
-30,69,left,4,4,0,,,,,0,left,1,1.197760166,None,,,,,0,4,4,4,54.19074062502477,,,,,,,,,,,,,,,,,,,,,,,,,,,,,,,,,55.39407762500923,55.40125358302612,56.886733249993995,56.891976041020826,,,,,,,,,,,54.18669374997262,54.19074062502477,54.69126470806077,54.69126470806077,54.76857279101387,54.76857279101387,54.77223929099273,55.393951207981445,left,1,1.197760166,None,,,,,,,,,,,,,,,,,,,,,,,,,,,,,,,,,,,,,,,,,343263,001,2025-08-14_20h51.56.267,tilt_staircase,2024.2.4,None,2025-08-14 20h52.14.723332 -0700
30,69,right,5,5,0,,,,,0,right,1,1.0670217500301078,None,,,,,0,5,5,5,56.891976041020826,,,,,,,,,,,,,,,,,,,,,,,,,,,,,,,,,57.969376208027825,57.97338708303869,59.45761808298994,59.468523083021864,,,,,,,,,,,56.88726370804943,56.891976041020826,57.389730750001036,57.389730750001036,57.46806737501174,57.46806737501174,57.47199854103383,57.96916579105891,right,1,1.0670217500301078,None,,,,,,,,,,,,,,,,,,,,,,,,,,,,,,,,,,,,,,,,,343263,001,2025-08-14_20h51.56.267,tilt_staircase,2024.2.4,None,2025-08-14 20h52.14.723332 -0700
,,,,,,,,,,,,,,,,,,,,,,,,,,,,,,,,,,,,,,,,,,,,,,,,,,,,,,,,,,,,,,,,,,,,,,,,,,,,,,,,,,59.45775520801544,59.468523083021864,59.468523083021864,60.37110783299431,space,0.8922930000117049,None,,,,,,,,,,,,,,,,,,,,,,,,,,,,,,,,,,343263,001,2025-08-14_20h51.56.267,tilt_staircase,2024.2.4,None,2025-08-14 20h52.14.723332 -0700
,,,,,,,,,,,,,,,,,,,,,,,60.511370665975846,,,,,,,,,,,,,,,,,,,,,,,,,,,,,,,,,,,,,,,,,,,,,,,,,,,,,,,,,,,,,,,,,,posc_poss,30,15,15,-15,"[5, 2, 1, 0.5]",lin,1,1,8,3,1,0,start,5,15,15,60.505240875063464,60.511370665975846,60.868285582982935,60.868285582982935,60.94355104106944,60.94355104106944,60.94355104106944,61.90308112,1,,,,,,,,343263,001,2025-08-14_20h51.56.267,tilt_staircase,2024.2.4,None,2025-08-14 20h52.14.723332 -0700
,,,,,,,,,,,,,,,,,,,,,,,61.91081220807973,,,,,,,,,,,,,,,,,,,,,,,,,,,,,,,,,,,,,,,,,,,,,,,,,,,,,,,,,,,,,,,,,,negc_poss,30,-15,15,-15,"[5, 2, 1, 0.5]",lin,1,1,8,2,1,1,start,5,-15,15,61.90412716602441,61.91081220807973,62.40110458305571,62.40110458305571,62.47409795806743,62.47409795806743,62.47409795806743,63.22727150004357,0,,,,,,,,343263,001,2025-08-14_20h51.56.267,tilt_staircase,2024.2.4,None,2025-08-14 20h52.14.723332 -0700
,,,,,,,,,,,,,,,,,,,,,,,63.235248291050084,,,,,,,,,,,,,,,,,,,,,,,,,,,,,,,,,,,,,,,,,,,,,,,,,,,,,,,,,,,,,,,,,,negc_negs,30,-15,15,-15,"[5, 2, 1, 0.5]",lin,1,1,8,0,1,2,start,5,-15,-15,63.228669041069224,63.235248291050084,63.726569375023246,63.726569375023246,63.80188141600229,63.80188141600229,63.80188141600229,64.97099579,0,,,,,,,,343263,001,2025-08-14_20h51.56.267,tilt_staircase,2024.2.4,None,2025-08-14 20h52.14.723332 -0700
,,,,,,,,,,,,,,,,,,,,,,,64.97905320802238,,,,,,,,,,,,,,,,,,,,,,,,,,,,,,,,,,,,,,,,,,,,,,,,,,,,,,,,,,,,,,,,,,posc_negs,30,15,15,-15,"[5, 2, 1, 0.5]",lin,1,1,8,1,1,3,start,5,15,-15,64.97250729100779,64.97905320802238,65.46842358307913,65.46842358307913,65.54206095798872,65.54206095798872,65.54206095798872,66.33643291599583,1,,,,,,,,343263,001,2025-08-14_20h51.56.267,tilt_staircase,2024.2.4,None,2025-08-14 20h52.14.723332 -0700
,,,,,,,,,,,,,,,,,,,,,,,66.34374849998858,,,,,,,,,,,,,,,,,,,,,,,,,,,,,,,,,,,,,,,,,,,,,,,,,,,,,,,,,,,,,,,,,,posc_noss,30,15,15,-15,"[5, 2, 1, 0.5]",lin,1,1,8,5,1,4,start,5,15,,66.33735012507532,66.34374849998858,66.82666333,66.82666333,66.90263812500052,66.90263812500052,66.90802321,67.63845283305272,1,,,,,,,,343263,001,2025-08-14_20h51.56.267,tilt_staircase,2024.2.4,None,2025-08-14 20h52.14.723332 -0700
,,,,,,,,,,,,,,,,,,,,,,,67.64473296,,,,,,,,,,,,,,,,,,,,,,,,,,,,,,,,,,,,,,,,,,,,,,,,,,,,,,,,,,,,,,,,,,negc_noss,30,-15,15,-15,"[5, 2, 1, 0.5]",lin,1,1,8,4,1,5,start,5,-15,,67.63955921,67.64473296,68.13541587500367,68.13541587500367,68.20651054102927,68.20651054102927,68.20651054102927,68.78799874999095,0,,,,,,,,343263,001,2025-08-14_20h51.56.267,tilt_staircase,2024.2.4,None,2025-08-14 20h52.14.723332 -0700
,,,,,,,,,,,,,,,,,,,,,,,68.79565579106566,,,,,,,,,,,,,,,,,,,,,,,,,,,,,,,,,,,,,,,,,,,,,,,,,,,,,,,,,,,,,,,,,,posc_noss,30,15,15,-15,"[5, 2, 1, 0.5]",lin,1,1,8,5,2,6,down,5,10,,68.78922892,68.79565579106566,69.28474508307409,69.28474508307409,69.35817966598552,69.35817966598552,69.35817966598552,69.77140541607514,1,,,,,,,,343263,001,2025-08-14_20h51.56.267,tilt_staircase,2024.2.4,None,2025-08-14 20h52.14.723332 -0700
,,,,,,,,,,,,,,,,,,,,,,,69.77944391604979,,,,,,,,,,,,,,,,,,,,,,,,,,,,,,,,,,,,,,,,,,,,,,,,,,,,,,,,,,,,,,,,,,posc_negs,30,15,15,-15,"[5, 2, 1, 0.5]",lin,1,1,8,1,2,7,down,5,10,-15,69.77285704098176,69.77944391604979,70.26885083306115,70.26885083306115,70.34102920803707,70.34102920803707,70.34102920803707,70.88579804101028,1,,,,,,,,343263,001,2025-08-14_20h51.56.267,tilt_staircase,2024.2.4,None,2025-08-14 20h52.14.723332 -0700
,,,,,,,,,,,,,,,,,,,,,,,70.89075413,,,,,,,,,,,,,,,,,,,,,,,,,,,,,,,,,,,,,,,,,,,,,,,,,,,,,,,,,,,,,,,,,,negc_negs,30,-15,15,-15,"[5, 2, 1, 0.5]",lin,1,1,8,0,2,8,up,5,-10,-15,70.88629054103512,70.89075413,71.37636479106732,71.37636479106732,71.45256712497212,71.45256712497212,71.45838120800909,71.92710429104045,0,,,,,,,,343263,001,2025-08-14_20h51.56.267,tilt_staircase,2024.2.4,None,2025-08-14 20h52.14.723332 -0700
,,,,,,,,,,,,,,,,,,,,,,,71.93468900001608,,,,,,,,,,,,,,,,,,,,,,,,,,,,,,,,,,,,,,,,,,,,,,,,,,,,,,,,,,,,,,,,,,negc_noss,30,-15,15,-15,"[5, 2, 1, 0.5]",lin,1,1,8,4,2,9,up,5,-10,,71.92808558302931,71.93468900001608,72.42626683297567,72.42626683297567,72.50260370806791,72.50260370806791,72.50260370806791,72.97060570807662,0,,,,,,,,343263,001,2025-08-14_20h51.56.267,tilt_staircase,2024.2.4,None,2025-08-14 20h52.14.723332 -0700
,,,,,,,,,,,,,,,,,,,,,,,72.97810662502889,,,,,,,,,,,,,,,,,,,,,,,,,,,,,,,,,,,,,,,,,,,,,,,,,,,,,,,,,,,,,,,,,,negc_poss,30,-15,15,-15,"[5, 2, 1, 0.5]",lin,1,1,8,2,2,10,up,5,-10,15,72.97175466606859,72.97810662502889,73.46925912506413,73.46925912506413,73.54039108299185,73.54039108299185,73.54039108299185,74.14623216597829,0,,,,,,,,343263,001,2025-08-14_20h51.56.267,tilt_staircase,2024.2.4,None,2025-08-14 20h52.14.723332 -0700
,,,,,,,,,,,,,,,,,,,,,,,74.15149837499484,,,,,,,,,,,,,,,,,,,,,,,,,,,,,,,,,,,,,,,,,,,,,,,,,,,,,,,,,,,,,,,,,,posc_poss,30,15,15,-15,"[5, 2, 1, 0.5]",lin,1,1,8,3,2,11,down,5,10,15,74.14716425002553,74.15149837499484,74.66811096,74.66811096,74.74094566598069,74.74094566598069,74.72464866598602,75.22081766603515,1,,,,,,,,343263,001,2025-08-14_20h51.56.267,tilt_staircase,2024.2.4,None,2025-08-14 20h52.14.723332 -0700
,,,,,,,,,,,,,,,,,,,,,,,75.22848095803056,,,,,,,,,,,,,,,,,,,,,,,,,,,,,,,,,,,,,,,,,,,,,,,,,,,,,,,,,,,,,,,,,,posc_noss,30,15,15,-15,"[5, 2, 1, 0.5]",lin,1,1,8,5,3,12,down,5,5,,75.22199383,75.22848095803056,75.71930491598323,75.71930491598323,75.79183729097713,75.79183729097713,75.79183729097713,76.36024991597515,1,,,,,,,,343263,001,2025-08-14_20h51.56.267,tilt_staircase,2024.2.4,None,2025-08-14 20h52.14.723332 -0700
,,,,,,,,,,,,,,,,,,,,,,,76.36773929104675,,,,,,,,,,,,,,,,,,,,,,,,,,,,,,,,,,,,,,,,,,,,,,,,,,,,,,,,,,,,,,,,,,posc_poss,30,15,15,-15,"[5, 2, 1, 0.5]",lin,1,1,8,3,3,13,down,5,5,15,76.36117162497249,76.36773929104675,76.86013858299702,76.86013858299702,76.93599329097196,76.93599329097196,76.93599329097196,77.88055463,1,,,,,,,,343263,001,2025-08-14_20h51.56.267,tilt_staircase,2024.2.4,None,2025-08-14 20h52.14.723332 -0700
,,,,,,,,,,,,,,,,,,,,,,,77.90188833302818,,,,,,,,,,,,,,,,,,,,,,,,,,,,,,,,,,,,,,,,,,,,,,,,,,,,,,,,,,,,,,,,,,negc_noss,30,-15,15,-15,"[5, 2, 1, 0.5]",lin,1,1,8,4,3,14,up,5,-5,,77.88150975003373,77.90188833302818,78.37704245804343,78.37704245804343,78.45265016600024,78.45265016600024,78.4587365,78.94680829101708,0,,,,,,,,343263,001,2025-08-14_20h51.56.267,tilt_staircase,2024.2.4,None,2025-08-14 20h52.14.723332 -0700
,,,,,,,,,,,,,,,,,,,,,,,78.95403058303054,,,,,,,,,,,,,,,,,,,,,,,,,,,,,,,,,,,,,,,,,,,,,,,,,,,,,,,,,,,,,,,,,,negc_poss,30,-15,15,-15,"[5, 2, 1, 0.5]",lin,1,1,8,2,3,15,up,5,-5,15,78.94809475005604,78.95403058303054,79.44304995797575,79.44304995797575,79.51926633308176,79.51926633308176,79.52495800005272,80.01219625002705,0,,,,,,,,343263,001,2025-08-14_20h51.56.267,tilt_staircase,2024.2.4,None,2025-08-14 20h52.14.723332 -0700
,,,,,,,,,,,,,,,,,,,,,,,80.01785037503578,,,,,,,,,,,,,,,,,,,,,,,,,,,,,,,,,,,,,,,,,,,,,,,,,,,,,,,,,,,,,,,,,,posc_negs,30,15,15,-15,"[5, 2, 1, 0.5]",lin,1,1,8,1,3,16,down,5,5,-15,80.01314563,80.01785037503578,80.50857212,80.50857212,80.58520991599653,80.58520991599653,80.58520991599653,81.06257216597442,1,,,,,,,,343263,001,2025-08-14_20h51.56.267,tilt_staircase,2024.2.4,None,2025-08-14 20h52.14.723332 -0700
,,,,,,,,,,,,,,,,,,,,,,,81.06781899998896,,,,,,,,,,,,,,,,,,,,,,,,,,,,,,,,,,,,,,,,,,,,,,,,,,,,,,,,,,,,,,,,,,negc_negs,30,-15,15,-15,"[5, 2, 1, 0.5]",lin,1,1,8,0,3,17,up,5,-5,-15,81.06351113,81.06781899998896,81.55961287,81.55961287,81.63592341600452,81.63592341600452,81.63592341600452,83.46013804106042,1,,,,,,,,343263,001,2025-08-14_20h51.56.267,tilt_staircase,2024.2.4,None,2025-08-14 20h52.14.723332 -0700
,,,,,,,,,,,,,,,,,,,,,,,83.46782692,,,,,,,,,,,,,,,,,,,,,,,,,,,,,,,,,,,,,,,,,,,,,,,,,,,,,,,,,,,,,,,,,,negc_noss,30,-15,15,-15,"[5, 2, 1, 0.5]",lin,1,1,8,4,4,18,up,5,0,,83.46112004097085,83.46782692,83.95945691608358,83.95945691608358,84.03512458,84.03512458,84.03512458,86.45430804102216,1,,,,,,,,343263,001,2025-08-14_20h51.56.267,tilt_staircase,2024.2.4,None,2025-08-14 20h52.14.723332 -0700
,,,,,,,,,,,,,,,,,,,,,,,86.46181279106531,,,,,,,,,,,,,,,,,,,,,,,,,,,,,,,,,,,,,,,,,,,,,,,,,,,,,,,,,,,,,,,,,,posc_poss,30,15,15,-15,"[5, 2, 1, 0.5]",lin,1,1,8,3,4,19,down,5,0,15,86.45531513,86.46181279106531,86.95195133297238,86.95195133297238,87.02541129104793,87.02541129104793,87.02541129104793,87.77138546,0,,,,,,,,343263,001,2025-08-14_20h51.56.267,tilt_staircase,2024.2.4,None,2025-08-14 20h52.14.723332 -0700
,,,,,,,,,,,,,,,,,,,,,,,87.77930325001944,,,,,,,,,,,,,,,,,,,,,,,,,,,,,,,,,,,,,,,,,,,,,,,,,,,,,,,,,,,,,,,,,,negc_negs,30,-15,15,-15,"[5, 2, 1, 0.5]",lin,1,1,8,0,4,20,down,2,-7,-15,87.77276983298361,87.77930325001944,88.26849150005728,88.26849150005728,88.34242416603956,88.34242416603956,88.34242416603956,88.91998624999542,0,,,,,,,,343263,001,2025-08-14_20h51.56.267,tilt_staircase,2024.2.4,None,2025-08-14 20h52.14.723332 -0700
,,,,,,,,,,,,,,,,,,,,,,,88.92725612502545,,,,,,,,,,,,,,,,,,,,,,,,,,,,,,,,,,,,,,,,,,,,,,,,,,,,,,,,,,,,,,,,,,posc_noss,30,15,15,-15,"[5, 2, 1, 0.5]",lin,1,1,8,5,4,21,down,5,0,,88.92093562497757,88.92725612502545,89.40971266606357,89.40971266606357,89.48595704103354,89.48595704103354,89.49212595797144,90.17973396,0,,,,,,,,343263,001,2025-08-14_20h51.56.267,tilt_staircase,2024.2.4,None,2025-08-14 20h52.14.723332 -0700
,,,,,,,,,,,,,,,,,,,,,,,90.18510841601528,,,,,,,,,,,,,,,,,,,,,,,,,,,,,,,,,,,,,,,,,,,,,,,,,,,,,,,,,,,,,,,,,,negc_poss,30,-15,15,-15,"[5, 2, 1, 0.5]",lin,1,1,8,2,4,22,up,5,0,15,90.18090650008526,90.18510841601528,90.67642120807432,90.67642120807432,90.75251391599886,90.75251391599886,90.75872733304277,91.47658316604793,0,,,,,,,,343263,001,2025-08-14_20h51.56.267,tilt_staircase,2024.2.4,None,2025-08-14 20h52.14.723332 -0700
,,,,,,,,,,,,,,,,,,,,,,,91.48442420805804,,,,,,,,,,,,,,,,,,,,,,,,,,,,,,,,,,,,,,,,,,,,,,,,,,,,,,,,,,,,,,,,,,posc_negs,30,15,15,-15,"[5, 2, 1, 0.5]",lin,1,1,8,1,4,23,down,5,0,-15,91.47750699997414,91.48442420805804,91.97633141605183,91.97633141605183,92.05255712498911,92.05255712498911,92.05255712498911,92.64609691605438,1,,,,,,,,343263,001,2025-08-14_20h51.56.267,tilt_staircase,2024.2.4,None,2025-08-14 20h52.14.723332 -0700
,,,,,,,,,,,,,,,,,,,,,,,92.65118904097471,,,,,,,,,,,,,,,,,,,,,,,,,,,,,,,,,,,,,,,,,,,,,,,,,,,,,,,,,,,,,,,,,,negc_poss,30,-15,15,-15,"[5, 2, 1, 0.5]",lin,1,1,8,2,5,24,up,5,5,15,92.64709195797332,92.65118904097471,93.14194691600278,93.14194691600278,93.21918058302253,93.21918058302253,93.22507458308246,93.81252858,1,,,,,,,,343263,001,2025-08-14_20h51.56.267,tilt_staircase,2024.2.4,None,2025-08-14 20h52.14.723332 -0700
,,,,,,,,,,,,,,,,,,,,,,,93.81766908301506,,,,,,,,,,,,,,,,,,,,,,,,,,,,,,,,,,,,,,,,,,,,,,,,,,,,,,,,,,,,,,,,,,posc_noss,30,15,15,-15,"[5, 2, 1, 0.5]",lin,1,1,8,5,5,25,up,2,2,,93.81348942,93.81766908301506,94.30957220797427,94.30957220797427,94.38591321,94.38591321,94.38591321,95.25961612502579,1,,,,,,,,343263,001,2025-08-14_20h51.56.267,tilt_staircase,2024.2.4,None,2025-08-14 20h52.14.723332 -0700
,,,,,,,,,,,,,,,,,,,,,,,95.26776529103518,,,,,,,,,,,,,,,,,,,,,,,,,,,,,,,,,,,,,,,,,,,,,,,,,,,,,,,,,,,,,,,,,,posc_negs,30,15,15,-15,"[5, 2, 1, 0.5]",lin,1,1,8,1,5,26,down,5,-5,-15,95.26058596,95.26776529103518,95.75989888,95.75989888,95.83587325003464,95.83587325003464,95.83587325003464,96.53825117,0,,,,,,,,343263,001,2025-08-14_20h51.56.267,tilt_staircase,2024.2.4,None,2025-08-14 20h52.14.723332 -0700
,,,,,,,,,,,,,,,,,,,,,,,96.54569350008387,,,,,,,,,,,,,,,,,,,,,,,,,,,,,,,,,,,,,,,,,,,,,,,,,,,,,,,,,,,,,,,,,,posc_poss,30,15,15,-15,"[5, 2, 1, 0.5]",lin,1,1,8,3,5,27,up,2,2,15,96.53950062498916,96.54569350008387,97.03524916607421,97.03524916607421,97.10866916598752,97.10866916598752,97.10866916598752,97.96863337501418,0,,,,,,,,343263,001,2025-08-14_20h51.56.267,tilt_staircase,2024.2.4,None,2025-08-14 20h52.14.723332 -0700
,,,,,,,,,,,,,,,,,,,,,,,97.97402954101562,,,,,,,,,,,,,,,,,,,,,,,,,,,,,,,,,,,,,,,,,,,,,,,,,,,,,,,,,,,,,,,,,,negc_noss,30,-15,15,-15,"[5, 2, 1, 0.5]",lin,1,1,8,4,5,28,down,2,-2,,97.96956983301789,97.97402954101562,98.45973988,98.45973988,98.53527370805386,98.53527370805386,98.54159662500024,99.15321825,0,,,,,,,,343263,001,2025-08-14_20h51.56.267,tilt_staircase,2024.2.4,None,2025-08-14 20h52.14.723332 -0700
,,,,,,,,,,,,,,,,,,,,,,,99.16058821,,,,,,,,,,,,,,,,,,,,,,,,,,,,,,,,,,,,,,,,,,,,,,,,,,,,,,,,,,,,,,,,,,negc_negs,30,-15,15,-15,"[5, 2, 1, 0.5]",lin,1,1,8,0,5,29,up,1,-6,-15,99.15412979,99.16058821,99.64308604,99.64308604,99.71918491600081,99.71918491600081,99.72536779101938,100.3204535410041,0,,,,,,,,343263,001,2025-08-14_20h51.56.267,tilt_staircase,2024.2.4,None,2025-08-14 20h52.14.723332 -0700
,,,,,,,,,,,,,,,,,,,,,,,100.32520924997516,,,,,,,,,,,,,,,,,,,,,,,,,,,,,,,,,,,,,,,,,,,,,,,,,,,,,,,,,,,,,,,,,,posc_negs,30,15,15,-15,"[5, 2, 1, 0.5]",lin,1,1,8,1,6,30,up,2,-3,-15,100.32096316607203,100.32520924997516,100.81804500008002,100.81804500008002,100.89013708301354,100.89013708301354,100.89013708301354,102.09626533300616,1,,,,,,,,343263,001,2025-08-14_20h51.56.267,tilt_staircase,2024.2.4,None,2025-08-14 20h52.14.723332 -0700
,,,,,,,,,,,,,,,,,,,,,,,102.10139237507246,,,,,,,,,,,,,,,,,,,,,,,,,,,,,,,,,,,,,,,,,,,,,,,,,,,,,,,,,,,,,,,,,,posc_poss,30,15,15,-15,"[5, 2, 1, 0.5]",lin,1,1,8,3,6,31,up,2,4,15,102.0972405000357,102.10139237507246,102.5926232910715,102.5926232910715,102.66860679106321,102.66860679106321,102.67478212504648,103.27110887505114,1,,,,,,,,343263,001,2025-08-14_20h51.56.267,tilt_staircase,2024.2.4,None,2025-08-14 20h52.14.723332 -0700
,,,,,,,,,,,,,,,,,,,,,,,103.27829741605092,,,,,,,,,,,,,,,,,,,,,,,,,,,,,,,,,,,,,,,,,,,,,,,,,,,,,,,,,,,,,,,,,,negc_poss,30,-15,15,-15,"[5, 2, 1, 0.5]",lin,1,1,8,2,6,32,down,2,3,15,103.27207387506496,103.27829741605092,103.76844520808663,103.76844520808663,103.83977316599339,103.83977316599339,103.83977316599339,104.72019266604912,1,,,,,,,,343263,001,2025-08-14_20h51.56.267,tilt_staircase,2024.2.4,None,2025-08-14 20h52.14.723332 -0700
,,,,,,,,,,,,,,,,,,,,,,,104.72777162503917,,,,,,,,,,,,,,,,,,,,,,,,,,,,,,,,,,,,,,,,,,,,,,,,,,,,,,,,,,,,,,,,,,negc_noss,30,-15,15,-15,"[5, 2, 1, 0.5]",lin,1,1,8,4,6,33,up,1,-1,,104.72119762504008,104.72777162503917,105.21827441605274,105.21827441605274,105.29216825007461,105.29216825007461,105.29216825007461,106.33730445802212,0,,,,,,,,343263,001,2025-08-14_20h51.56.267,tilt_staircase,2024.2.4,None,2025-08-14 20h52.14.723332 -0700
,,,,,,,,,,,,,,,,,,,,,,,106.34494316601194,,,,,,,,,,,,,,,,,,,,,,,,,,,,,,,,,,,,,,,,,,,,,,,,,,,,,,,,,,,,,,,,,,posc_noss,30,15,15,-15,"[5, 2, 1, 0.5]",lin,1,1,8,5,6,34,down,1,1,,106.33830425003543,106.34494316601194,106.83514883299358,106.83514883299358,106.90900458302349,106.90900458302349,106.90900458302349,107.63689804100432,1,,,,,,,,343263,001,2025-08-14_20h51.56.267,tilt_staircase,2024.2.4,None,2025-08-14 20h52.14.723332 -0700
,,,,,,,,,,,,,,,,,,,,,,,107.64312295801938,,,,,,,,,,,,,,,,,,,,,,,,,,,,,,,,,,,,,,,,,,,,,,,,,,,,,,,,,,,,,,,,,,negc_negs,30,-15,15,-15,"[5, 2, 1, 0.5]",lin,1,1,8,0,6,35,up,1,-5,-15,107.63750029099174,107.64312295801938,108.13518320803996,108.13518320803996,108.2084540000651,108.2084540000651,108.2084540000651,108.84407350001857,0,,,,,,,,343263,001,2025-08-14_20h51.56.267,tilt_staircase,2024.2.4,None,2025-08-14 20h52.14.723332 -0700
,,,,,,,,,,,,,,,,,,,,,,,108.85189633304253,,,,,,,,,,,,,,,,,,,,,,,,,,,,,,,,,,,,,,,,,,,,,,,,,,,,,,,,,,,,,,,,,,posc_poss,30,15,15,-15,"[5, 2, 1, 0.5]",lin,1,1,8,3,7,36,down,1,3,15,108.8453205000842,108.85189633304253,109.34336150006857,109.34336150006857,109.41838475002442,109.41838475002442,109.41838475002442,110.05944874999113,0,,,,,,,,343263,001,2025-08-14_20h51.56.267,tilt_staircase,2024.2.4,None,2025-08-14 20h52.14.723332 -0700
,,,,,,,,,,,,,,,,,,,,,,,110.06776487501338,,,,,,,,,,,,,,,,,,,,,,,,,,,,,,,,,,,,,,,,,,,,,,,,,,,,,,,,,,,,,,,,,,negc_noss,30,-15,15,-15,"[5, 2, 1, 0.5]",lin,1,1,8,4,7,37,up,1,0,,110.06044866598677,110.06776487501338,110.55946604104247,110.55946604104247,110.63577716599684,110.63577716599684,110.63577716599684,112.58841095806565,1,,,,,,,,343263,001,2025-08-14_20h51.56.267,tilt_staircase,2024.2.4,None,2025-08-14 20h52.14.723332 -0700
,,,,,,,,,,,,,,,,,,,,,,,112.59587179101072,,,,,,,,,,,,,,,,,,,,,,,,,,,,,,,,,,,,,,,,,,,,,,,,,,,,,,,,,,,,,,,,,,posc_negs,30,15,15,-15,"[5, 2, 1, 0.5]",lin,1,1,8,1,7,38,down,1,-4,-15,112.58946691604797,112.59587179101072,113.08579191600438,113.08579191600438,113.15886583307292,113.15886583307292,113.15886583307292,114.04624041600619,0,,,,,,,,343263,001,2025-08-14_20h51.56.267,tilt_staircase,2024.2.4,None,2025-08-14 20h52.14.723332 -0700
,,,,,,,,,,,,,,,,,,,,,,,114.05136704107281,,,,,,,,,,,,,,,,,,,,,,,,,,,,,,,,,,,,,,,,,,,,,,,,,,,,,,,,,,,,,,,,,,posc_noss,30,15,15,-15,"[5, 2, 1, 0.5]",lin,1,1,8,5,7,39,down,1,0,,114.04715916607529,114.05136704107281,114.54323512502015,114.54323512502015,114.61926175002009,114.61926175002009,114.61926175002009,115.45253945805598,0,,,,,,,,343263,001,2025-08-14_20h51.56.267,tilt_staircase,2024.2.4,None,2025-08-14 20h52.14.723332 -0700
,,,,,,,,,,,,,,,,,,,,,,,115.45733437500894,,,,,,,,,,,,,,,,,,,,,,,,,,,,,,,,,,,,,,,,,,,,,,,,,,,,,,,,,,,,,,,,,,negc_poss,30,-15,15,-15,"[5, 2, 1, 0.5]",lin,1,1,8,2,7,40,down,2,1,15,115.45293750008568,115.45733437500894,115.94253566605039,115.94253566605039,116.01913308305666,116.01913308305666,116.02518387499731,116.62062533304561,0,,,,,,,,343263,001,2025-08-14_20h51.56.267,tilt_staircase,2024.2.4,None,2025-08-14 20h52.14.723332 -0700
,,,,,,,,,,,,,,,,,,,,,,,116.62789541599341,,,,,,,,,,,,,,,,,,,,,,,,,,,,,,,,,,,,,,,,,,,,,,,,,,,,,,,,,,,,,,,,,,negc_negs,30,-15,15,-15,"[5, 2, 1, 0.5]",lin,1,1,8,0,7,41,up,1,-4,-15,116.62159920798149,116.62789541599341,117.11918341601267,117.11918341601267,117.19003525003791,117.19003525003791,117.19003525003791,117.87116216600407,0,,,,,,,,343263,001,2025-08-14_20h51.56.267,tilt_staircase,2024.2.4,None,2025-08-14 20h52.14.723332 -0700
,,,,,,,,,,,,,,,,,,,,,,,117.87951720808633,,,,,,,,,,,,,,,,,,,,,,,,,,,,,,,,,,,,,,,,,,,,,,,,,,,,,,,,,,,,,,,,,,negc_poss,30,-15,15,-15,"[5, 2, 1, 0.5]",lin,1,1,8,2,8,42,up,1,2,15,117.87273379100952,117.87951720808633,118.36805808299687,118.36805808299687,118.4421397499973,118.4421397499973,118.4421397499973,119.03748449997511,0,,,,,,,,343263,001,2025-08-14_20h51.56.267,tilt_staircase,2024.2.4,None,2025-08-14 20h52.14.723332 -0700
,,,,,,,,,,,,,,,,,,,,,,,119.0459112500539,,,,,,,,,,,,,,,,,,,,,,,,,,,,,,,,,,,,,,,,,,,,,,,,,,,,,,,,,,,,,,,,,,posc_noss,30,15,15,-15,"[5, 2, 1, 0.5]",lin,1,1,8,5,8,43,up,0.5,0.5,,119.0391120830318,119.0459112500539,119.53516216599382,119.53516216599382,119.60674966603983,119.60674966603983,119.60674966603983,121.23562445805874,1,,,,,,,,343263,001,2025-08-14_20h51.56.267,tilt_staircase,2024.2.4,None,2025-08-14 20h52.14.723332 -0700
,,,,,,,,,,,,,,,,,,,,,,,121.24134775006678,,,,,,,,,,,,,,,,,,,,,,,,,,,,,,,,,,,,,,,,,,,,,,,,,,,,,,,,,,,,,,,,,,negc_negs,30,-15,15,-15,"[5, 2, 1, 0.5]",lin,1,1,8,0,8,44,up,1,-3,-15,121.23614362499211,121.24134775006678,121.72624829097185,121.72624829097185,121.80180804105476,121.80180804105476,121.8082007500343,122.82067783304956,0,,,,,,,,343263,001,2025-08-14_20h51.56.267,tilt_staircase,2024.2.4,None,2025-08-14 20h52.14.723332 -0700
,,,,,,,,,,,,,,,,,,,,,,,122.82838495797478,,,,,,,,,,,,,,,,,,,,,,,,,,,,,,,,,,,,,,,,,,,,,,,,,,,,,,,,,,,,,,,,,,negc_noss,30,-15,15,-15,"[5, 2, 1, 0.5]",lin,1,1,8,4,8,45,down,0.5,-0.5,,122.82181329105515,122.82838495797478,123.31867937499192,123.31867937499192,123.39164254104253,123.39164254104253,123.39164254104253,123.86008958297316,0,,,,,,,,343263,001,2025-08-14_20h51.56.267,tilt_staircase,2024.2.4,None,2025-08-14 20h52.14.723332 -0700
,,,,,,,,,,,,,,,,,,,,,,,123.86770591605455,,,,,,,,,,,,,,,,,,,,,,,,,,,,,,,,,,,,,,,,,,,,,,,,,,,,,,,,,,,,,,,,,,posc_negs,30,15,15,-15,"[5, 2, 1, 0.5]",lin,1,1,8,1,8,46,up,0.5,-3.5,-15,123.86104137508664,123.86770591605455,124.35957833298016,124.35957833298016,124.4514057909837,124.4514057909837,124.4514057909837,124.99485504103359,0,,,,,,,,343263,001,2025-08-14_20h51.56.267,tilt_staircase,2024.2.4,None,2025-08-14 20h52.14.723332 -0700
,,,,,,,,,,,,,,,,,,,,,,,125.00098287500441,,,,,,,,,,,,,,,,,,,,,,,,,,,,,,,,,,,,,,,,,,,,,,,,,,,,,,,,,,,,,,,,,,posc_poss,30,15,15,-15,"[5, 2, 1, 0.5]",lin,1,1,8,3,8,47,up,0.5,3.5,15,124.99581724999007,125.00098287500441,125.49291579099372,125.49291579099372,125.56847104104236,125.56847104104236,125.56847104104236,126.10426450008526,0,,,,,,,,343263,001,2025-08-14_20h51.56.267,tilt_staircase,2024.2.4,None,2025-08-14 20h52.14.723332 -0700
,,,,,,,,,,,,,,,,,,,,,,,126.11161220807116,,,,,,,,,,,,,,,,,,,,,,,,,,,,,,,,,,,,,,,,,,,,,,,,,,,,,,,,,,,,,,,,,,posc_negs,30,15,15,-15,"[5, 2, 1, 0.5]",lin,1,1,8,1,9,48,up,0.5,-3,-15,126.10528787504882,126.11161220807116,126.60182166600134,126.60182166600134,126.67514087504242,126.67514087504242,126.67514087504242,127.37487487506587,0,,,,,,,,343263,001,2025-08-14_20h51.56.267,tilt_staircase,2024.2.4,None,2025-08-14 20h52.14.723332 -0700
,,,,,,,,,,,,,,,,,,,,,,,127.38445550005417,,,,,,,,,,,,,,,,,,,,,,,,,,,,,,,,,,,,,,,,,,,,,,,,,,,,,,,,,,,,,,,,,,negc_negs,30,-15,15,-15,"[5, 2, 1, 0.5]",lin,1,1,8,0,9,49,up,1,-2,-15,127.37595650006551,127.38445550005417,127.86852745804936,127.86852745804936,127.94118462502956,127.94118462502956,127.95577975001652,128.6934629160678,0,,,,,,,,343263,001,2025-08-14_20h51.56.267,tilt_staircase,2024.2.4,None,2025-08-14 20h52.14.723332 -0700
,,,,,,,,,,,,,,,,,,,,,,,128.701429,,,,,,,,,,,,,,,,,,,,,,,,,,,,,,,,,,,,,,,,,,,,,,,,,,,,,,,,,,,,,,,,,,posc_poss,30,15,15,-15,"[5, 2, 1, 0.5]",lin,1,1,8,3,9,50,up,0.5,4,15,128.69450108299498,128.701429,129.1871119160205,129.1871119160205,129.25623491604347,129.25623491604347,129.26836954103783,130.18631179106887,1,,,,,,,,343263,001,2025-08-14_20h51.56.267,tilt_staircase,2024.2.4,None,2025-08-14 20h52.14.723332 -0700
,,,,,,,,,,,,,,,,,,,,,,,130.19363837502897,,,,,,,,,,,,,,,,,,,,,,,,,,,,,,,,,,,,,,,,,,,,,,,,,,,,,,,,,,,,,,,,,,posc_noss,30,15,15,-15,"[5, 2, 1, 0.5]",lin,1,1,8,5,9,51,down,0.5,0,,130.18714075000025,130.19363837502897,130.67687958304305,130.67687958304305,130.7519311660435,130.7519311660435,130.75807866605464,131.43731341604143,0,,,,,,,,343263,001,2025-08-14_20h51.56.267,tilt_staircase,2024.2.4,None,2025-08-14 20h52.14.723332 -0700
,,,,,,,,,,,,,,,,,,,,,,,131.44494991598185,,,,,,,,,,,,,,,,,,,,,,,,,,,,,,,,,,,,,,,,,,,,,,,,,,,,,,,,,,,,,,,,,,negc_poss,30,-15,15,-15,"[5, 2, 1, 0.5]",lin,1,1,8,2,9,52,up,1,3,15,131.43837583297864,131.44494991598185,131.9351887,131.9351887,132.00853029103018,132.00853029103018,132.00853029103018,133.02457304100972,0,,,,,,,,343263,001,2025-08-14_20h51.56.267,tilt_staircase,2024.2.4,None,2025-08-14 20h52.14.723332 -0700
,,,,,,,,,,,,,,,,,,,,,,,133.0349248329876,,,,,,,,,,,,,,,,,,,,,,,,,,,,,,,,,,,,,,,,,,,,,,,,,,,,,,,,,,,,,,,,,,negc_noss,30,-15,15,-15,"[5, 2, 1, 0.5]",lin,1,1,8,4,9,53,up,0.5,0,,133.02555670798756,133.0349248329876,133.51859237498138,133.51859237498138,133.58892354101408,133.58892354101408,133.60246295807883,135.2414745000424,0,,,,,,,,343263,001,2025-08-14_20h51.56.267,tilt_staircase,2024.2.4,None,2025-08-14 20h52.14.723332 -0700
,,,,,,,,,,,,,,,,,,,,,,,135.25154283305164,,,,,,,,,,,,,,,,,,,,,,,,,,,,,,,,,,,,,,,,,,,,,,,,,,,,,,,,,,,,,,,,,,posc_negs,30,15,15,-15,"[5, 2, 1, 0.5]",lin,1,1,8,1,10,54,up,0.5,-2.5,-15,135.24247595807537,135.25154283305164,135.73581804102287,135.73581804102287,135.80561591603328,135.80561591603328,135.81917262508068,138.80494900001213,0,,,,,,,,343263,001,2025-08-14_20h51.56.267,tilt_staircase,2024.2.4,None,2025-08-14 20h52.14.723332 -0700
,,,,,,,,,,,,,,,,,,,,,,,138.8150780000724,,,,,,,,,,,,,,,,,,,,,,,,,,,,,,,,,,,,,,,,,,,,,,,,,,,,,,,,,,,,,,,,,,posc_noss,30,15,15,-15,"[5, 2, 1, 0.5]",lin,1,1,8,5,10,55,up,0.5,0.5,,138.80643683299422,138.8150780000724,139.30126237508375,139.30126237508375,139.37179383297917,139.37179383297917,139.37179383297917,140.34335108299274,1,,,,,,,,343263,001,2025-08-14_20h51.56.267,tilt_staircase,2024.2.4,None,2025-08-14 20h52.14.723332 -0700
,,,,,,,,,,,,,,,,,,,,,,,140.3509850410046,,,,,,,,,,,,,,,,,,,,,,,,,,,,,,,,,,,,,,,,,,,,,,,,,,,,,,,,,,,,,,,,,,negc_negs,30,-15,15,-15,"[5, 2, 1, 0.5]",lin,1,1,8,0,10,56,up,1,-1,-15,140.34439070802182,140.3509850410046,140.84313779103104,140.84313779103104,140.91907033300959,140.91907033300959,140.91907033300959,141.62651316600386,1,,,,,,,,343263,001,2025-08-14_20h51.56.267,tilt_staircase,2024.2.4,None,2025-08-14 20h52.14.723332 -0700
,,,,,,,,,,,,,,,,,,,,,,,141.63420270802453,,,,,,,,,,,,,,,,,,,,,,,,,,,,,,,,,,,,,,,,,,,,,,,,,,,,,,,,,,,,,,,,,,posc_poss,30,15,15,-15,"[5, 2, 1, 0.5]",lin,1,1,8,3,10,57,down,0.5,3.5,15,141.6276167910546,141.63420270802453,142.12627033307217,142.12627033307217,142.20239062502515,142.20239062502515,142.20239062502515,144.2122272910783,1,,,,,,,,343263,001,2025-08-14_20h51.56.267,tilt_staircase,2024.2.4,None,2025-08-14 20h52.14.723332 -0700
,,,,,,,,,,,,,,,,,,,,,,,144.2222250830382,,,,,,,,,,,,,,,,,,,,,,,,,,,,,,,,,,,,,,,,,,,,,,,,,,,,,,,,,,,,,,,,,,negc_noss,30,-15,15,-15,"[5, 2, 1, 0.5]",lin,1,1,8,4,10,58,up,0.5,0.5,,144.21492329100147,144.2222250830382,144.7103340830654,144.7103340830654,144.78579674998764,144.78579674998764,144.7918642499717,145.65415533306077,1,,,,,,,,343263,001,2025-08-14_20h51.56.267,tilt_staircase,2024.2.4,None,2025-08-14 20h52.14.723332 -0700
,,,,,,,,,,,,,,,,,,,,,,,145.66178299998865,,,,,,,,,,,,,,,,,,,,,,,,,,,,,,,,,,,,,,,,,,,,,,,,,,,,,,,,,,,,,,,,,,negc_poss,30,-15,15,-15,"[5, 2, 1, 0.5]",lin,1,1,8,2,10,59,up,1,4,15,145.65527329104953,145.66178299998865,146.15235741599463,146.15235741599463,146.22489995800424,146.22489995800424,146.22489995800424,147.3041434159968,1,,,,,,,,343263,001,2025-08-14_20h51.56.267,tilt_staircase,2024.2.4,None,2025-08-14 20h52.14.723332 -0700
,,,,,,,,,,,,,,,,,,,,,,,147.3124724579975,,,,,,,,,,,,,,,,,,,,,,,,,,,,,,,,,,,,,,,,,,,,,,,,,,,,,,,,,,,,,,,,,,negc_poss,30,-15,15,-15,"[5, 2, 1, 0.5]",lin,1,1,8,2,11,60,down,0.5,3.5,15,147.3055214160122,147.3124724579975,147.80169183306862,147.80169183306862,147.87539675005246,147.87539675005246,147.87539675005246,149.37951579107903,1,,,,,,,,343263,001,2025-08-14_20h51.56.267,tilt_staircase,2024.2.4,None,2025-08-14 20h52.14.723332 -0700
,,,,,,,,,,,,,,,,,,,,,,,149.38480891601648,,,,,,,,,,,,,,,,,,,,,,,,,,,,,,,,,,,,,,,,,,,,,,,,,,,,,,,,,,,,,,,,,,posc_poss,30,15,15,-15,"[5, 2, 1, 0.5]",lin,1,1,8,3,11,61,down,0.5,3,15,149.38048675004393,149.38480891601648,149.87624212505762,149.87624212505762,149.95165937498678,149.95165937498678,149.95165937498678,152.01993083301932,1,,,,,,,,343263,001,2025-08-14_20h51.56.267,tilt_staircase,2024.2.4,None,2025-08-14 20h52.14.723332 -0700
,,,,,,,,,,,,,,,,,,,,,,,152.0278037909884,,,,,,,,,,,,,,,,,,,,,,,,,,,,,,,,,,,,,,,,,,,,,,,,,,,,,,,,,,,,,,,,,,posc_noss,30,15,15,-15,"[5, 2, 1, 0.5]",lin,1,1,8,5,11,62,down,0.5,0,,152.02114462503232,152.0278037909884,152.50980404100846,152.50980404100846,152.58573166606948,152.58573166606948,152.59163395804353,157.12066170806065,1,,,,,,,,343263,001,2025-08-14_20h51.56.267,tilt_staircase,2024.2.4,None,2025-08-14 20h52.14.723332 -0700
,,,,,,,,,,,,,,,,,,,,,,,157.1283105830662,,,,,,,,,,,,,,,,,,,,,,,,,,,,,,,,,,,,,,,,,,,,,,,,,,,,,,,,,,,,,,,,,,negc_noss,30,-15,15,-15,"[5, 2, 1, 0.5]",lin,1,1,8,4,11,63,down,0.5,0,,157.12170741602313,157.1283105830662,157.6184670830844,157.6184670830844,157.69138145807665,157.69138145807665,157.69138145807665,158.46239950007293,0,,,,,,,,343263,001,2025-08-14_20h51.56.267,tilt_staircase,2024.2.4,None,2025-08-14 20h52.14.723332 -0700
,,,,,,,,,,,,,,,,,,,,,,,158.46771504101343,,,,,,,,,,,,,,,,,,,,,,,,,,,,,,,,,,,,,,,,,,,,,,,,,,,,,,,,,,,,,,,,,,posc_negs,30,15,15,-15,"[5, 2, 1, 0.5]",lin,1,1,8,1,11,64,up,0.5,-2,-15,158.46340920799412,158.46771504101343,158.9598547500791,158.9598547500791,159.0357444579713,159.0357444579713,159.0357444579713,159.8066502910806,1,,,,,,,,343263,001,2025-08-14_20h51.56.267,tilt_staircase,2024.2.4,None,2025-08-14 20h52.14.723332 -0700
,,,,,,,,,,,,,,,,,,,,,,,159.81842104101088,,,,,,,,,,,,,,,,,,,,,,,,,,,,,,,,,,,,,,,,,,,,,,,,,,,,,,,,,,,,,,,,,,negc_negs,30,-15,15,-15,"[5, 2, 1, 0.5]",lin,1,1,8,0,11,65,down,0.5,-1.5,-15,159.80764637503307,159.81842104101088,160.3012335000094,160.3012335000094,160.37240258301608,160.37240258301608,160.38455966603942,161.72707550006453,1,,,,,,,,343263,001,2025-08-14_20h51.56.267,tilt_staircase,2024.2.4,None,2025-08-14 20h52.14.723332 -0700
,,,,,,,,,,,,,,,,,,,,,,,161.73475850000978,,,,,,,,,,,,,,,,,,,,,,,,,,,,,,,,,,,,,,,,,,,,,,,,,,,,,,,,,,,,,,,,,,posc_negs,30,15,15,-15,"[5, 2, 1, 0.5]",lin,1,1,8,1,12,66,down,0.5,-2.5,-15,161.72812391608022,161.73475850000978,162.22608408308588,162.22608408308588,162.30159283301327,162.30159283301327,162.30159283301327,163.28678283304907,0,,,,,,,,343263,001,2025-08-14_20h51.56.267,tilt_staircase,2024.2.4,None,2025-08-14 20h52.14.723332 -0700
,,,,,,,,,,,,,,,,,,,,,,,163.29454020806588,,,,,,,,,,,,,,,,,,,,,,,,,,,,,,,,,,,,,,,,,,,,,,,,,,,,,,,,,,,,,,,,,,negc_negs,30,-15,15,-15,"[5, 2, 1, 0.5]",lin,1,1,8,0,12,67,down,0.5,-2,-15,163.28821358305868,163.29454020806588,163.78579783299938,163.78579783299938,163.85800058301538,163.85800058301538,163.85800058301538,165.37086991604883,0,,,,,,,,343263,001,2025-08-14_20h51.56.267,tilt_staircase,2024.2.4,None,2025-08-14 20h52.14.723332 -0700
,,,,,,,,,,,,,,,,,,,,,,,165.37813700002152,,,,,,,,,,,,,,,,,,,,,,,,,,,,,,,,,,,,,,,,,,,,,,,,,,,,,,,,,,,,,,,,,,posc_poss,30,15,15,-15,"[5, 2, 1, 0.5]",lin,1,1,8,3,12,68,down,0.5,2.5,15,165.3717742500594,165.37813700002152,165.86830554099288,165.86830554099288,165.94017733307555,165.94017733307555,165.94017733307555,167.58896558301058,0,,,,,,,,343263,001,2025-08-14_20h51.56.267,tilt_staircase,2024.2.4,None,2025-08-14 20h52.14.723332 -0700
,,,,,,,,,,,,,,,,,,,,,,,167.5936337080784,,,,,,,,,,,,,,,,,,,,,,,,,,,,,,,,,,,,,,,,,,,,,,,,,,,,,,,,,,,,,,,,,,negc_poss,30,-15,15,-15,"[5, 2, 1, 0.5]",lin,1,1,8,2,12,69,down,0.5,3,15,167.58942162501626,167.5936337080784,168.08546179102268,168.08546179102268,168.1578459580196,168.1578459580196,168.1578459580196,168.75530137505848,1,,,,,,,,343263,001,2025-08-14_20h51.56.267,tilt_staircase,2024.2.4,None,2025-08-14 20h52.14.723332 -0700
,,,,,,,,,,,,,,,,,,,,,,,168.76176787505392,,,,,,,,,,,,,,,,,,,,,,,,,,,,,,,,,,,,,,,,,,,,,,,,,,,,,,,,,,,,,,,,,,negc_noss,30,-15,15,-15,"[5, 2, 1, 0.5]",lin,1,1,8,4,12,70,up,0.5,0.5,,168.7560352080036,168.76176787505392,169.25204616598785,169.25204616598785,169.32360137498472,169.32360137498472,169.32360137498472,169.89573491597548,1,,,,,,,,343263,001,2025-08-14_20h51.56.267,tilt_staircase,2024.2.4,None,2025-08-14 20h52.14.723332 -0700
,,,,,,,,,,,,,,,,,,,,,,,169.90115254104603,,,,,,,,,,,,,,,,,,,,,,,,,,,,,,,,,,,,,,,,,,,,,,,,,,,,,,,,,,,,,,,,,,posc_noss,30,15,15,-15,"[5, 2, 1, 0.5]",lin,1,1,8,5,12,71,down,0.5,-0.5,,169.89669658301864,169.90115254104603,170.39302050007973,170.39302050007973,170.4690859579714,170.4690859579714,170.4690859579714,171.6096293750452,0,,,,,,,,343263,001,2025-08-14_20h51.56.267,tilt_staircase,2024.2.4,None,2025-08-14 20h52.14.723332 -0700
,,,,,,,,,,,,,,,,,,,,,,,171.61761983297765,,,,,,,,,,,,,,,,,,,,,,,,,,,,,,,,,,,,,,,,,,,,,,,,,,,,,,,,,,,,,,,,,,posc_negs,30,15,15,-15,"[5, 2, 1, 0.5]",lin,1,1,8,1,13,72,up,0.5,-2,-15,171.61060374998488,171.61761983297765,172.1097668330185,172.1097668330185,172.1857797499979,172.1857797499979,172.1857797499979,172.84587579104118,1,,,,,,,,343263,001,2025-08-14_20h51.56.267,tilt_staircase,2024.2.4,None,2025-08-14 20h52.14.723332 -0700
,,,,,,,,,,,,,,,,,,,,,,,172.8511690410087,,,,,,,,,,,,,,,,,,,,,,,,,,,,,,,,,,,,,,,,,,,,,,,,,,,,,,,,,,,,,,,,,,posc_poss,30,15,15,-15,"[5, 2, 1, 0.5]",lin,1,1,8,3,13,73,up,0.5,3,15,172.84680125000887,172.8511690410087,173.3432397909928,173.3432397909928,173.4189206250012,173.4189206250012,173.4189206250012,175.18675987503957,1,,,,,,,,343263,001,2025-08-14_20h51.56.267,tilt_staircase,2024.2.4,None,2025-08-14 20h52.14.723332 -0700
,,,,,,,,,,,,,,,,,,,,,,,175.19425162498374,,,,,,,,,,,,,,,,,,,,,,,,,,,,,,,,,,,,,,,,,,,,,,,,,,,,,,,,,,,,,,,,,,posc_noss,30,15,15,-15,"[5, 2, 1, 0.5]",lin,1,1,8,5,13,74,up,0.5,0,,175.1878830830101,175.19425162498374,175.68500770803075,175.68500770803075,175.75779595808126,175.75779595808126,175.75779595808126,176.57607029099017,0,,,,,,,,343263,001,2025-08-14_20h51.56.267,tilt_staircase,2024.2.4,None,2025-08-14 20h52.14.723332 -0700
,,,,,,,,,,,,,,,,,,,,,,,176.58425600000191,,,,,,,,,,,,,,,,,,,,,,,,,,,,,,,,,,,,,,,,,,,,,,,,,,,,,,,,,,,,,,,,,,negc_noss,30,-15,15,-15,"[5, 2, 1, 0.5]",lin,1,1,8,4,13,75,down,0.5,0,,176.57701679097954,176.58425600000191,177.07528895803262,177.07528895803262,177.15162075008266,177.15162075008266,177.15162075008266,177.74298912507948,1,,,,,,,,343263,001,2025-08-14_20h51.56.267,tilt_staircase,2024.2.4,None,2025-08-14 20h52.14.723332 -0700
,,,,,,,,,,,,,,,,,,,,,,,177.7511311250273,,,,,,,,,,,,,,,,,,,,,,,,,,,,,,,,,,,,,,,,,,,,,,,,,,,,,,,,,,,,,,,,,,negc_negs,30,-15,15,-15,"[5, 2, 1, 0.5]",lin,1,1,8,0,13,76,up,0.5,-1.5,-15,177.74406729103066,177.7511311250273,178.24296125001274,178.24296125001274,178.3191182910232,178.3191182910232,178.3191182910232,179.15430649998598,1,,,,,,,,343263,001,2025-08-14_20h51.56.267,tilt_staircase,2024.2.4,None,2025-08-14 20h52.14.723332 -0700
,,,,,,,,,,,,,,,,,,,,,,,179.16152966604568,,,,,,,,,,,,,,,,,,,,,,,,,,,,,,,,,,,,,,,,,,,,,,,,,,,,,,,,,,,,,,,,,,negc_poss,30,-15,15,-15,"[5, 2, 1, 0.5]",lin,1,1,8,2,13,77,down,0.5,2.5,15,179.15530133305583,179.16152966604568,179.6519862500718,179.6519862500718,179.7251242910279,179.7251242910279,179.7251242910279,180.41241008299403,0,,,,,,,,343263,001,2025-08-14_20h51.56.267,tilt_staircase,2024.2.4,None,2025-08-14 20h52.14.723332 -0700
,,,,,,,,,,,,,,,,,,,,,,,180.41773679107428,,,,,,,,,,,,,,,,,,,,,,,,,,,,,,,,,,,,,,,,,,,,,,,,,,,,,,,,,,,,,,,,,,negc_noss,30,-15,15,-15,"[5, 2, 1, 0.5]",lin,1,1,8,4,14,78,down,0.5,-0.5,,180.41341162507888,180.41773679107428,180.91009229107294,180.91009229107294,180.9850232,180.9850232,180.9850232,181.60352058301214,0,,,,,,,,343263,001,2025-08-14_20h51.56.267,tilt_staircase,2024.2.4,None,2025-08-14 20h52.14.723332 -0700
,,,,,,,,,,,,,,,,,,,,,,,181.61120583303273,,,,,,,,,,,,,,,,,,,,,,,,,,,,,,,,,,,,,,,,,,,,,,,,,,,,,,,,,,,,,,,,,,posc_noss,30,15,15,-15,"[5, 2, 1, 0.5]",lin,1,1,8,5,14,79,up,0.5,0.5,,181.6046215830138,181.61120583303273,182.1023441660218,182.1023441660218,182.17420170805417,182.17420170805417,182.17420170805417,183.47091337502934,1,,,,,,,,343263,001,2025-08-14_20h51.56.267,tilt_staircase,2024.2.4,None,2025-08-14 20h52.14.723332 -0700
,,,,,,,,,,,,,,,,,,,,,,,183.4783194580814,,,,,,,,,,,,,,,,,,,,,,,,,,,,,,,,,,,,,,,,,,,,,,,,,,,,,,,,,,,,,,,,,,negc_poss,30,-15,15,-15,"[5, 2, 1, 0.5]",lin,1,1,8,2,14,80,up,0.5,3,15,183.47191900003236,183.4783194580814,183.96829816605896,183.96829816605896,184.04157000000123,184.04157000000123,184.04157000000123,184.7715052,1,,,,,,,,343263,001,2025-08-14_20h51.56.267,tilt_staircase,2024.2.4,None,2025-08-14 20h52.14.723332 -0700
,,,,,,,,,,,,,,,,,,,,,,,184.7790949579794,,,,,,,,,,,,,,,,,,,,,,,,,,,,,,,,,,,,,,,,,,,,,,,,,,,,,,,,,,,,,,,,,,negc_negs,30,-15,15,-15,"[5, 2, 1, 0.5]",lin,1,1,8,0,14,81,down,0.5,-2,-15,184.77252375008538,184.7790949579794,185.2679309580708,185.2679309580708,185.34192487504333,185.34192487504333,185.34192487504333,185.93739712506067,1,,,,,,,,343263,001,2025-08-14_20h51.56.267,tilt_staircase,2024.2.4,None,2025-08-14 20h52.14.723332 -0700
,,,,,,,,,,,,,,,,,,,,,,,185.94485429103952,,,,,,,,,,,,,,,,,,,,,,,,,,,,,,,,,,,,,,,,,,,,,,,,,,,,,,,,,,,,,,,,,,posc_negs,30,15,15,-15,"[5, 2, 1, 0.5]",lin,1,1,8,1,14,82,down,0.5,-2.5,-15,185.93865370808635,185.94485429103952,186.43505974998698,186.43505974998698,186.50819924997631,186.50819924997631,186.50819924997631,188.28667833306827,1,,,,,,,,343263,001,2025-08-14_20h51.56.267,tilt_staircase,2024.2.4,None,2025-08-14 20h52.14.723332 -0700
,,,,,,,,,,,,,,,,,,,,,,,188.29415437497664,,,,,,,,,,,,,,,,,,,,,,,,,,,,,,,,,,,,,,,,,,,,,,,,,,,,,,,,,,,,,,,,,,posc_poss,30,15,15,-15,"[5, 2, 1, 0.5]",lin,1,1,8,3,14,83,down,0.5,2.5,15,188.28771408298053,188.29415437497664,188.78485995798837,188.78485995798837,188.85805029107723,188.85805029107723,188.85805029107723,189.48680329101626,1,,,,,,,,343263,001,2025-08-14_20h51.56.267,tilt_staircase,2024.2.4,None,2025-08-14 20h52.14.723332 -0700
,,,,,,,,,,,,,,,,,,,,,,,189.49423720804043,,,,,,,,,,,,,,,,,,,,,,,,,,,,,,,,,,,,,,,,,,,,,,,,,,,,,,,,,,,,,,,,,,negc_negs,30,-15,15,-15,"[5, 2, 1, 0.5]",lin,1,1,8,0,15,84,down,0.5,-2.5,-15,189.48773966601584,189.49423720804043,189.98477766604628,189.98477766604628,190.05881112499628,190.05881112499628,190.05881112499628,190.73916079103947,1,,,,,,,,343263,001,2025-08-14_20h51.56.267,tilt_staircase,2024.2.4,None,2025-08-14 20h52.14.723332 -0700
,,,,,,,,,,,,,,,,,,,,,,,190.74664987507276,,,,,,,,,,,,,,,,,,,,,,,,,,,,,,,,,,,,,,,,,,,,,,,,,,,,,,,,,,,,,,,,,,negc_poss,30,-15,15,-15,"[5, 2, 1, 0.5]",lin,1,1,8,2,15,85,down,0.5,2.5,15,190.74018199997954,190.74664987507276,191.23521066608373,191.23521066608373,191.3083320830483,191.3083320830483,191.3083320830483,191.92078516597394,1,,,,,,,,343263,001,2025-08-14_20h51.56.267,tilt_staircase,2024.2.4,None,2025-08-14 20h52.14.723332 -0700
,,,,,,,,,,,,,,,,,,,,,,,191.92851883301046,,,,,,,,,,,,,,,,,,,,,,,,,,,,,,,,,,,,,,,,,,,,,,,,,,,,,,,,,,,,,,,,,,posc_poss,30,15,15,-15,"[5, 2, 1, 0.5]",lin,1,1,8,3,15,86,down,0.5,2,15,191.9220124160638,191.92851883301046,192.41826262499671,192.41826262499671,192.49204929103144,192.49204929103144,192.49204929103144,193.04505666601472,0,,,,,,,,343263,001,2025-08-14_20h51.56.267,tilt_staircase,2024.2.4,None,2025-08-14 20h52.14.723332 -0700
,,,,,,,,,,,,,,,,,,,,,,,193.05086270801257,,,,,,,,,,,,,,,,,,,,,,,,,,,,,,,,,,,,,,,,,,,,,,,,,,,,,,,,,,,,,,,,,,negc_noss,30,-15,15,-15,"[5, 2, 1, 0.5]",lin,1,1,8,4,15,87,up,0.5,0,,193.04597325006034,193.05086270801257,193.54241816606373,193.54241816606373,193.61903462500777,193.61903462500777,193.62524900003336,194.2867582080653,0,,,,,,,,343263,001,2025-08-14_20h51.56.267,tilt_staircase,2024.2.4,None,2025-08-14 20h52.14.723332 -0700
,,,,,,,,,,,,,,,,,,,,,,,194.2942282500444,,,,,,,,,,,,,,,,,,,,,,,,,,,,,,,,,,,,,,,,,,,,,,,,,,,,,,,,,,,,,,,,,,posc_noss,30,15,15,-15,"[5, 2, 1, 0.5]",lin,1,1,8,5,15,88,down,0.5,0,,194.28783166606445,194.2942282500444,194.78467316599563,194.78467316599563,194.85593766602688,194.85593766602688,194.85593766602688,195.90980654105078,0,,,,,,,,343263,001,2025-08-14_20h51.56.267,tilt_staircase,2024.2.4,None,2025-08-14 20h52.14.723332 -0700
,,,,,,,,,,,,,,,,,,,,,,,195.9177455829922,,,,,,,,,,,,,,,,,,,,,,,,,,,,,,,,,,,,,,,,,,,,,,,,,,,,,,,,,,,,,,,,,,posc_negs,30,15,15,-15,"[5, 2, 1, 0.5]",lin,1,1,8,1,15,89,down,0.5,-3,-15,195.91081262507942,195.9177455829922,196.40948891604785,196.40948891604785,196.48572825000156,196.48572825000156,196.48572825000156,197.7714691250585,1,,,,,,,,343263,001,2025-08-14_20h51.56.267,tilt_staircase,2024.2.4,None,2025-08-14 20h52.14.723332 -0700
,,,,,,,,,,,,,,,,,,,,,,,197.77814341604244,,,,,,,,,,,,,,,,,,,,,,,,,,,,,,,,,,,,,,,,,,,,,,,,,,,,,,,,,,,,,,,,,,posc_poss,30,15,15,-15,"[5, 2, 1, 0.5]",lin,1,1,8,3,16,90,up,0.5,2.5,15,197.7723117,197.77814341604244,198.26902370806783,198.26902370806783,198.3416837080149,198.3416837080149,198.3416837080149,199.13549712498207,0,,,,,,,,343263,001,2025-08-14_20h51.56.267,tilt_staircase,2024.2.4,None,2025-08-14 20h52.14.723332 -0700
,,,,,,,,,,,,,,,,,,,,,,,199.14077733305749,,,,,,,,,,,,,,,,,,,,,,,,,,,,,,,,,,,,,,,,,,,,,,,,,,,,,,,,,,,,,,,,,,negc_poss,30,-15,15,-15,"[5, 2, 1, 0.5]",lin,1,1,8,2,16,91,down,0.5,2,15,199.13642387499567,199.14077733305749,199.62668066599872,199.62668066599872,199.70174208306707,199.70174208306707,199.7080426660832,200.37111491605174,0,,,,,,,,343263,001,2025-08-14_20h51.56.267,tilt_staircase,2024.2.4,None,2025-08-14 20h52.14.723332 -0700
,,,,,,,,,,,,,,,,,,,,,,,200.37827583297621,,,,,,,,,,,,,,,,,,,,,,,,,,,,,,,,,,,,,,,,,,,,,,,,,,,,,,,,,,,,,,,,,,negc_noss,30,-15,15,-15,"[5, 2, 1, 0.5]",lin,1,1,8,4,16,92,up,0.5,0.5,,200.3720689159818,200.37827583297621,200.86887283297256,200.86887283297256,200.93991258298047,200.93991258298047,200.93991258298047,203.0541193750687,1,,,,,,,,343263,001,2025-08-14_20h51.56.267,tilt_staircase,2024.2.4,None,2025-08-14 20h52.14.723332 -0700
,,,,,,,,,,,,,,,,,,,,,,,203.0620798750315,,,,,,,,,,,,,,,,,,,,,,,,,,,,,,,,,,,,,,,,,,,,,,,,,,,,,,,,,,,,,,,,,,posc_negs,30,15,15,-15,"[5, 2, 1, 0.5]",lin,1,1,8,1,16,93,down,0.5,-3.5,-15,203.05569750000723,203.0620798750315,203.55167379102204,203.55167379102204,203.62417529104277,203.62417529104277,203.62417529104277,204.25336279103067,0,,,,,,,,343263,001,2025-08-14_20h51.56.267,tilt_staircase,2024.2.4,None,2025-08-14 20h52.14.723332 -0700
,,,,,,,,,,,,,,,,,,,,,,,204.2606994160451,,,,,,,,,,,,,,,,,,,,,,,,,,,,,,,,,,,,,,,,,,,,,,,,,,,,,,,,,,,,,,,,,,negc_negs,30,-15,15,-15,"[5, 2, 1, 0.5]",lin,1,1,8,0,16,94,down,0.5,-3,-15,204.25444141600747,204.2606994160451,204.75239145802334,204.75239145802334,204.8245645830175,204.8245645830175,204.8245645830175,205.52718912507407,0,,,,,,,,343263,001,2025-08-14_20h51.56.267,tilt_staircase,2024.2.4,None,2025-08-14 20h52.14.723332 -0700
,,,,,,,,,,,,,,,,,,,,,,,205.5345296249725,,,,,,,,,,,,,,,,,,,,,,,,,,,,,,,,,,,,,,,,,,,,,,,,,,,,,,,,,,,,,,,,,,posc_noss,30,15,15,-15,"[5, 2, 1, 0.5]",lin,1,1,8,5,16,95,up,0.5,0.5,,205.5280949580483,205.5345296249725,206.02565220801625,206.02565220801625,206.10224675002974,206.10224675002974,206.10224675002974,208.74037062504794,1,,,,,,,,343263,001,2025-08-14_20h51.56.267,tilt_staircase,2024.2.4,None,2025-08-14 20h52.14.723332 -0700
,,,,,,,,,,,,,,,,,,,,,,,208.75161108304746,,,,,,,,,,,,,,,,,,,,,,,,,,,,,,,,,,,,,,,,,,,,,,,,,,,,,,,,,,,,,,,,,,negc_noss,30,-15,15,-15,"[5, 2, 1, 0.5]",lin,1,1,8,4,17,96,down,0.5,0,,208.74138783302624,208.75161108304746,209.23496695805807,209.23496695805807,209.3068142500706,209.3068142500706,209.3190232909983,209.89229845802765,0,,,,,,,,343263,001,2025-08-14_20h51.56.267,tilt_staircase,2024.2.4,None,2025-08-14 20h52.14.723332 -0700
,,,,,,,,,,,,,,,,,,,,,,,209.90094679105096,,,,,,,,,,,,,,,,,,,,,,,,,,,,,,,,,,,,,,,,,,,,,,,,,,,,,,,,,,,,,,,,,,negc_poss,30,-15,15,-15,"[5, 2, 1, 0.5]",lin,1,1,8,2,17,97,up,0.5,2.5,15,209.8937193750171,209.90094679105096,210.39326575002633,210.39326575002633,210.46826020802837,210.46826020802837,210.46826020802837,211.4713737909915,1,,,,,,,,343263,001,2025-08-14_20h51.56.267,tilt_staircase,2024.2.4,None,2025-08-14 20h52.14.723332 -0700
,,,,,,,,,,,,,,,,,,,,,,,211.4787973749917,,,,,,,,,,,,,,,,,,,,,,,,,,,,,,,,,,,,,,,,,,,,,,,,,,,,,,,,,,,,,,,,,,posc_noss,30,15,15,-15,"[5, 2, 1, 0.5]",lin,1,1,8,5,17,98,down,0.5,0,,211.4723825410474,211.4787973749917,211.96824929106515,211.96824929106515,212.04184529103804,212.04184529103804,212.04184529103804,213.10314966598526,0,,,,,,,,343263,001,2025-08-14_20h51.56.267,tilt_staircase,2024.2.4,None,2025-08-14 20h52.14.723332 -0700
,,,,,,,,,,,,,,,,,,,,,,,213.1108470830368,,,,,,,,,,,,,,,,,,,,,,,,,,,,,,,,,,,,,,,,,,,,,,,,,,,,,,,,,,,,,,,,,,posc_negs,30,15,15,-15,"[5, 2, 1, 0.5]",lin,1,1,8,1,17,99,up,0.5,-3,-15,213.10416154097766,213.1108470830368,213.6016832080204,213.6016832080204,213.67509550007526,213.67509550007526,213.67509550007526,216.40981650003232,0,,,,,,,,343263,001,2025-08-14_20h51.56.267,tilt_staircase,2024.2.4,None,2025-08-14 20h52.14.723332 -0700
,,,,,,,,,,,,,,,,,,,,,,,216.41748879104853,,,,,,,,,,,,,,,,,,,,,,,,,,,,,,,,,,,,,,,,,,,,,,,,,,,,,,,,,,,,,,,,,,posc_poss,30,15,15,-15,"[5, 2, 1, 0.5]",lin,1,1,8,3,17,100,up,0.5,3,15,216.4107937910594,216.41748879104853,216.90958566602785,216.90958566602785,216.98495895799715,216.98495895799715,216.98495895799715,218.50395666598342,0,,,,,,,,343263,001,2025-08-14_20h51.56.267,tilt_staircase,2024.2.4,None,2025-08-14 20h52.14.723332 -0700
,,,,,,,,,,,,,,,,,,,,,,,218.51200133305974,,,,,,,,,,,,,,,,,,,,,,,,,,,,,,,,,,,,,,,,,,,,,,,,,,,,,,,,,,,,,,,,,,negc_negs,30,-15,15,-15,"[5, 2, 1, 0.5]",lin,1,1,8,0,17,101,up,0.5,-2.5,-15,218.50540941604413,218.51200133305974,219.00155425001867,219.00155425001867,219.07450716604944,219.07450716604944,219.07450716604944,219.6037754160352,1,,,,,,,,343263,001,2025-08-14_20h51.56.267,tilt_staircase,2024.2.4,None,2025-08-14 20h52.14.723332 -0700
,,,,,,,,,,,,,,,,,,,,,,,219.61188475007657,,,,,,,,,,,,,,,,,,,,,,,,,,,,,,,,,,,,,,,,,,,,,,,,,,,,,,,,,,,,,,,,,,negc_noss,30,-15,15,-15,"[5, 2, 1, 0.5]",lin,1,1,8,4,18,102,up,0.5,0.5,,219.6053611660609,219.61188475007657,220.10156762506813,220.10156762506813,220.1753060000483,220.1753060000483,220.1753060000483,221.02037133299746,1,,,,,,,,343263,001,2025-08-14_20h51.56.267,tilt_staircase,2024.2.4,None,2025-08-14 20h52.14.723332 -0700
,,,,,,,,,,,,,,,,,,,,,,,221.02655154105742,,,,,,,,,,,,,,,,,,,,,,,,,,,,,,,,,,,,,,,,,,,,,,,,,,,,,,,,,,,,,,,,,,negc_poss,30,-15,15,-15,"[5, 2, 1, 0.5]",lin,1,1,8,2,18,103,down,0.5,2,15,221.02122770808637,221.02655154105742,221.51841216604225,221.51841216604225,221.59145466599148,221.59145466599148,221.59145466599148,222.3048553330591,0,,,,,,,,343263,001,2025-08-14_20h51.56.267,tilt_staircase,2024.2.4,None,2025-08-14 20h52.14.723332 -0700
,,,,,,,,,,,,,,,,,,,,,,,222.31288945802953,,,,,,,,,,,,,,,,,,,,,,,,,,,,,,,,,,,,,,,,,,,,,,,,,,,,,,,,,,,,,,,,,,posc_poss,30,15,15,-15,"[5, 2, 1, 0.5]",lin,1,1,8,3,18,104,up,0.5,3.5,15,222.30613029107917,222.31288945802953,222.80111179105006,222.80111179105006,222.87540787504986,222.87540787504986,222.87540787504986,223.4397750410717,1,,,,,,,,343263,001,2025-08-14_20h51.56.267,tilt_staircase,2024.2.4,None,2025-08-14 20h52.14.723332 -0700
,,,,,,,,,,,,,,,,,,,,,,,223.45118500001263,,,,,,,,,,,,,,,,,,,,,,,,,,,,,,,,,,,,,,,,,,,,,,,,,,,,,,,,,,,,,,,,,,posc_negs,30,15,15,-15,"[5, 2, 1, 0.5]",lin,1,1,8,1,18,105,up,0.5,-2.5,-15,223.44032799999695,223.45118500001263,223.93495258304756,223.93495258304756,224.00695387506858,224.00695387506858,224.0191022080835,224.99594608298503,0,,,,,,,,343263,001,2025-08-14_20h51.56.267,tilt_staircase,2024.2.4,None,2025-08-14 20h52.14.723332 -0700
,,,,,,,,,,,,,,,,,,,,,,,225.00119237508625,,,,,,,,,,,,,,,,,,,,,,,,,,,,,,,,,,,,,,,,,,,,,,,,,,,,,,,,,,,,,,,,,,posc_noss,30,15,15,-15,"[5, 2, 1, 0.5]",lin,1,1,8,5,18,106,up,0.5,0.5,,224.99687883304432,225.00119237508625,225.4935168750817,225.4935168750817,225.56850470800418,225.56850470800418,225.57440195803065,230.26054937497247,1,,,,,,,,343263,001,2025-08-14_20h51.56.267,tilt_staircase,2024.2.4,None,2025-08-14 20h52.14.723332 -0700
,,,,,,,,,,,,,,,,,,,,,,,230.26837629103102,,,,,,,,,,,,,,,,,,,,,,,,,,,,,,,,,,,,,,,,,,,,,,,,,,,,,,,,,,,,,,,,,,negc_negs,30,-15,15,-15,"[5, 2, 1, 0.5]",lin,1,1,8,0,18,107,down,0.5,-3,-15,230.26179095800035,230.26837629103102,230.75963683298323,230.75963683298323,230.83547370799351,230.83547370799351,230.83547370799351,231.47706054104492,0,,,,,,,,343263,001,2025-08-14_20h51.56.267,tilt_staircase,2024.2.4,None,2025-08-14 20h52.14.723332 -0700
,,,,,,,,,,,,,,,,,,,,,,,231.48457229102496,,,,,,,,,,,,,,,,,,,,,,,,,,,,,,,,,,,,,,,,,,,,,,,,,,,,,,,,,,,,,,,,,,posc_noss,30,15,15,-15,"[5, 2, 1, 0.5]",lin,1,1,8,5,19,108,down,0.5,0,,231.4774827080546,231.48457229102496,231.97665600001346,231.97665600001346,232.05220908299088,232.05220908299088,232.05220908299088,233.2029941250803,0,,,,,,,,343263,001,2025-08-14_20h51.56.267,tilt_staircase,2024.2.4,None,2025-08-14 20h52.14.723332 -0700
,,,,,,,,,,,,,,,,,,,,,,,233.21017854101956,,,,,,,,,,,,,,,,,,,,,,,,,,,,,,,,,,,,,,,,,,,,,,,,,,,,,,,,,,,,,,,,,,posc_poss,30,15,15,-15,"[5, 2, 1, 0.5]",lin,1,1,8,3,19,109,down,0.5,3,15,233.20396262500435,233.21017854101956,233.6932505830191,233.6932505830191,233.7688944999827,233.7688944999827,233.77497908298392,234.47119787498377,1,,,,,,,,343263,001,2025-08-14_20h51.56.267,tilt_staircase,2024.2.4,None,2025-08-14 20h52.14.723332 -0700
,,,,,,,,,,,,,,,,,,,,,,,234.47927783301566,,,,,,,,,,,,,,,,,,,,,,,,,,,,,,,,,,,,,,,,,,,,,,,,,,,,,,,,,,,,,,,,,,negc_poss,30,-15,15,-15,"[5, 2, 1, 0.5]",lin,1,1,8,2,19,110,up,0.5,2.5,15,234.47288258303888,234.47927783301566,234.96886504103895,234.96886504103895,235.03884941607248,235.03884941607248,235.03884941607248,235.5707420000108,1,,,,,,,,343263,001,2025-08-14_20h51.56.267,tilt_staircase,2024.2.4,None,2025-08-14 20h52.14.723332 -0700
,,,,,,,,,,,,,,,,,,,,,,,235.5780154580716,,,,,,,,,,,,,,,,,,,,,,,,,,,,,,,,,,,,,,,,,,,,,,,,,,,,,,,,,,,,,,,,,,negc_negs,30,-15,15,-15,"[5, 2, 1, 0.5]",lin,1,1,8,0,19,111,up,0.5,-2.5,-15,235.57171454105992,235.5780154580716,236.06819137500133,236.06819137500133,236.14196883304976,236.14196883304976,236.14196883304976,237.03728537505958,0,,,,,,,,343263,001,2025-08-14_20h51.56.267,tilt_staircase,2024.2.4,None,2025-08-14 20h52.14.723332 -0700
,,,,,,,,,,,,,,,,,,,,,,,237.04722462501377,,,,,,,,,,,,,,,,,,,,,,,,,,,,,,,,,,,,,,,,,,,,,,,,,,,,,,,,,,,,,,,,,,negc_noss,30,-15,15,-15,"[5, 2, 1, 0.5]",lin,1,1,8,4,19,112,down,0.5,0,,237.0409036250785,237.04722462501377,237.53483891603537,237.53483891603537,237.6056757500628,237.6056757500628,237.6056757500628,238.58736233308446,0,,,,,,,,343263,001,2025-08-14_20h51.56.267,tilt_staircase,2024.2.4,None,2025-08-14 20h52.14.723332 -0700
,,,,,,,,,,,,,,,,,,,,,,,238.5951263330644,,,,,,,,,,,,,,,,,,,,,,,,,,,,,,,,,,,,,,,,,,,,,,,,,,,,,,,,,,,,,,,,,,posc_negs,30,15,15,-15,"[5, 2, 1, 0.5]",lin,1,1,8,1,19,113,up,0.5,-2,-15,238.58839933306444,238.5951263330644,239.0858572080033,239.0858572080033,239.15828479104675,239.15828479104675,239.15828479104675,240.20419187506195,0,,,,,,,,343263,001,2025-08-14_20h51.56.267,tilt_staircase,2024.2.4,None,2025-08-14 20h52.14.723332 -0700
,,,,,,,,,,,,,,,,,,,,,,,240.2107072500512,,,,,,,,,,,,,,,,,,,,,,,,,,,,,,,,,,,,,,,,,,,,,,,,,,,,,,,,,,,,,,,,,,negc_poss,30,-15,15,-15,"[5, 2, 1, 0.5]",lin,1,1,8,2,20,114,down,0.5,2,15,240.20530433300883,240.2107072500512,240.70230745803565,240.70230745803565,240.77520525001455,240.77520525001455,240.77520525001455,243.97441120806616,1,,,,,,,,343263,001,2025-08-14_20h51.56.267,tilt_staircase,2024.2.4,None,2025-08-14 20h52.14.723332 -0700
,,,,,,,,,,,,,,,,,,,,,,,243.9844398329733,,,,,,,,,,,,,,,,,,,,,,,,,,,,,,,,,,,,,,,,,,,,,,,,,,,,,,,,,,,,,,,,,,posc_poss,30,15,15,-15,"[5, 2, 1, 0.5]",lin,1,1,8,3,20,115,down,0.5,2.5,15,243.9754053329816,243.9844398329733,244.4682271250058,244.4682271250058,244.54046837508213,244.54046837508213,244.55223795806523,245.63666974997614,1,,,,,,,,343263,001,2025-08-14_20h51.56.267,tilt_staircase,2024.2.4,None,2025-08-14 20h52.14.723332 -0700
,,,,,,,,,,,,,,,,,,,,,,,245.64430933305994,,,,,,,,,,,,,,,,,,,,,,,,,,,,,,,,,,,,,,,,,,,,,,,,,,,,,,,,,,,,,,,,,,negc_negs,30,-15,15,-15,"[5, 2, 1, 0.5]",lin,1,1,8,0,20,116,up,0.5,-2,-15,245.63787895801943,245.64430933305994,246.13481287506875,246.13481287506875,246.20749425003305,246.20749425003305,246.20749425003305,247.26019325002562,0,,,,,,,,343263,001,2025-08-14_20h51.56.267,tilt_staircase,2024.2.4,None,2025-08-14 20h52.14.723332 -0700
,,,,,,,,,,,,,,,,,,,,,,,247.26772141607944,,,,,,,,,,,,,,,,,,,,,,,,,,,,,,,,,,,,,,,,,,,,,,,,,,,,,,,,,,,,,,,,,,negc_noss,30,-15,15,-15,"[5, 2, 1, 0.5]",lin,1,1,8,4,20,117,up,0.5,0.5,,247.26129087503068,247.26772141607944,247.75953908299562,247.75953908299562,247.83547975006513,247.83547975006513,247.83547975006513,248.8272764160065,1,,,,,,,,343263,001,2025-08-14_20h51.56.267,tilt_staircase,2024.2.4,None,2025-08-14 20h52.14.723332 -0700
,,,,,,,,,,,,,,,,,,,,,,,248.8347687079804,,,,,,,,,,,,,,,,,,,,,,,,,,,,,,,,,,,,,,,,,,,,,,,,,,,,,,,,,,,,,,,,,,posc_noss,30,15,15,-15,"[5, 2, 1, 0.5]",lin,1,1,8,5,20,118,up,0.5,0.5,,248.82843487500213,248.8347687079804,249.32589075004216,249.32589075004216,249.40167183300946,249.40167183300946,249.40167183300946,251.6532625410473,1,,,,,,,,343263,001,2025-08-14_20h51.56.267,tilt_staircase,2024.2.4,None,2025-08-14 20h52.14.723332 -0700
,,,,,,,,,,,,,,,,,,,,,,,251.66017262497917,,,,,,,,,,,,,,,,,,,,,,,,,,,,,,,,,,,,,,,,,,,,,,,,,,,,,,,,,,,,,,,,,,posc_negs,30,15,15,-15,"[5, 2, 1, 0.5]",lin,1,1,8,1,20,119,up,0.5,-1.5,-15,251.65425516606774,251.66017262497917,252.1433885410661,252.1433885410661,252.21830954100005,252.21830954100005,252.22428475006018,253.1089703750331,1,,,,,,,,343263,001,2025-08-14_20h51.56.267,tilt_staircase,2024.2.4,None,2025-08-14 20h52.14.723332 -0700
,,,,,,,,,,,,,,,,,,,,,,,253.1174515830353,,,,,,,,,,,,,,,,,,,,,,,,,,,,,,,,,,,,,,,,,,,,,,,,,,,,,,,,,,,,,,,,,,posc_noss,30,15,15,-15,"[5, 2, 1, 0.5]",lin,1,1,8,5,21,120,down,0.5,0,,253.10992704099044,253.1174515830353,253.60937924997415,253.60937924997415,253.6855188329937,253.6855188329937,253.6855188329937,254.67873675003648,0,,,,,,,,343263,001,2025-08-14_20h51.56.267,tilt_staircase,2024.2.4,None,2025-08-14 20h52.14.723332 -0700
,,,,,,,,,,,,,,,,,,,,,,,254.6842757500708,,,,,,,,,,,,,,,,,,,,,,,,,,,,,,,,,,,,,,,,,,,,,,,,,,,,,,,,,,,,,,,,,,posc_negs,30,15,15,-15,"[5, 2, 1, 0.5]",lin,1,1,8,1,21,121,down,0.5,-2,-15,254.67966170806903,254.6842757500708,255.1759489160031,255.1759489160031,255.25223450001795,255.25223450001795,255.25223450001795,256.02097295806743,1,,,,,,,,343263,001,2025-08-14_20h51.56.267,tilt_staircase,2024.2.4,None,2025-08-14 20h52.14.723332 -0700
,,,,,,,,,,,,,,,,,,,,,,,256.02809525001794,,,,,,,,,,,,,,,,,,,,,,,,,,,,,,,,,,,,,,,,,,,,,,,,,,,,,,,,,,,,,,,,,,negc_negs,30,-15,15,-15,"[5, 2, 1, 0.5]",lin,1,1,8,0,21,122,up,0.5,-1.5,-15,256.0219284,256.02809525001794,256.5181885000784,256.5181885000784,256.5914153,256.5914153,256.5914153,257.1360036659753,1,,,,,,,,343263,001,2025-08-14_20h51.56.267,tilt_staircase,2024.2.4,None,2025-08-14 20h52.14.723332 -0700
,,,,,,,,,,,,,,,,,,,,,,,257.143398,,,,,,,,,,,,,,,,,,,,,,,,,,,,,,,,,,,,,,,,,,,,,,,,,,,,,,,,,,,,,,,,,,posc_poss,30,15,15,-15,"[5, 2, 1, 0.5]",lin,1,1,8,3,21,123,down,0.5,2,15,257.13713699998334,257.143398,257.62544920807704,257.62544920807704,257.70230291597545,257.70230291597545,257.7079746660311,260.6378172499826,1,,,,,,,,343263,001,2025-08-14_20h51.56.267,tilt_staircase,2024.2.4,None,2025-08-14 20h52.14.723332 -0700
,,,,,,,,,,,,,,,,,,,,,,,260.6453145829728,,,,,,,,,,,,,,,,,,,,,,,,,,,,,,,,,,,,,,,,,,,,,,,,,,,,,,,,,,,,,,,,,,negc_noss,30,-15,15,-15,"[5, 2, 1, 0.5]",lin,1,1,8,4,21,124,down,0.5,0,,260.63878008304164,260.6453145829728,261.13476433302276,261.13476433302276,261.20609091606457,261.20609091606457,261.20609091606457,261.7388474160107,0,,,,,,,,343263,001,2025-08-14_20h51.56.267,tilt_staircase,2024.2.4,None,2025-08-14 20h52.14.723332 -0700
,,,,,,,,,,,,,,,,,,,,,,,261.7439065000508,,,,,,,,,,,,,,,,,,,,,,,,,,,,,,,,,,,,,,,,,,,,,,,,,,,,,,,,,,,,,,,,,,negc_poss,30,-15,15,-15,"[5, 2, 1, 0.5]",lin,1,1,8,2,21,125,down,0.5,1.5,15,261.73933683300857,261.7439065000508,262.2346580410376,262.2346580410376,262.3074730000226,262.3074730000226,262.3074730000226,263.17088183306623,0,,,,,,,,343263,001,2025-08-14_20h51.56.267,tilt_staircase,2024.2.4,None,2025-08-14 20h52.14.723332 -0700
,,,,,,,,,,,,,,,,,,,,,,,263.1783338750247,,,,,,,,,,,,,,,,,,,,,,,,,,,,,,,,,,,,,,,,,,,,,,,,,,,,,,,,,,,,,,,,,,negc_poss,30,-15,15,-15,"[5, 2, 1, 0.5]",lin,1,1,8,2,22,126,up,0.5,2,15,263.1719213749748,263.1783338750247,263.6677933749743,263.6677933749743,263.74166549998336,263.74166549998336,263.74166549998336,264.3264979160158,0,,,,,,,,343263,001,2025-08-14_20h51.56.267,tilt_staircase,2024.2.4,None,2025-08-14 20h52.14.723332 -0700
,,,,,,,,,,,,,,,,,,,,,,,264.33401812508237,,,,,,,,,,,,,,,,,,,,,,,,,,,,,,,,,,,,,,,,,,,,,,,,,,,,,,,,,,,,,,,,,,posc_noss,30,15,15,-15,"[5, 2, 1, 0.5]",lin,1,1,8,5,22,127,up,0.5,0.5,,264.3277267910307,264.33401812508237,264.82578262500465,264.82578262500465,264.9016411660705,264.9016411660705,264.9016411660705,265.4764631660655,1,,,,,,,,343263,001,2025-08-14_20h51.56.267,tilt_staircase,2024.2.4,None,2025-08-14 20h52.14.723332 -0700
,,,,,,,,,,,,,,,,,,,,,,,265.4841556660831,,,,,,,,,,,,,,,,,,,,,,,,,,,,,,,,,,,,,,,,,,,,,,,,,,,,,,,,,,,,,,,,,,negc_negs,30,-15,15,-15,"[5, 2, 1, 0.5]",lin,1,1,8,0,22,128,down,0.5,-2,-15,265.47739383298904,265.4841556660831,265.97616529103834,265.97616529103834,266.0522470410215,266.0522470410215,266.0522470410215,267.1091696660733,1,,,,,,,,343263,001,2025-08-14_20h51.56.267,tilt_staircase,2024.2.4,None,2025-08-14 20h52.14.723332 -0700
,,,,,,,,,,,,,,,,,,,,,,,267.1174037080491,,,,,,,,,,,,,,,,,,,,,,,,,,,,,,,,,,,,,,,,,,,,,,,,,,,,,,,,,,,,,,,,,,posc_poss,30,15,15,-15,"[5, 2, 1, 0.5]",lin,1,1,8,3,22,129,down,0.5,1.5,15,267.1100838750135,267.1174037080491,267.6080248330254,267.6080248330254,267.6847233750159,267.6847233750159,267.6847233750159,270.8537836250616,1,,,,,,,,343263,001,2025-08-14_20h51.56.267,tilt_staircase,2024.2.4,None,2025-08-14 20h52.14.723332 -0700
,,,,,,,,,,,,,,,,,,,,,,,270.8617177500855,,,,,,,,,,,,,,,,,,,,,,,,,,,,,,,,,,,,,,,,,,,,,,,,,,,,,,,,,,,,,,,,,,negc_noss,30,-15,15,-15,"[5, 2, 1, 0.5]",lin,1,1,8,4,22,130,up,0.5,0.5,,270.8553513750667,270.8617177500855,271.3508215410402,271.3508215410402,271.42309479101095,271.42309479101095,271.42309479101095,272.61129466607235,0,,,,,,,,343263,001,2025-08-14_20h51.56.267,tilt_staircase,2024.2.4,None,2025-08-14 20h52.14.723332 -0700
,,,,,,,,,,,,,,,,,,,,,,,272.61753175000194,,,,,,,,,,,,,,,,,,,,,,,,,,,,,,,,,,,,,,,,,,,,,,,,,,,,,,,,,,,,,,,,,,posc_negs,30,15,15,-15,"[5, 2, 1, 0.5]",lin,1,1,8,1,22,131,down,0.5,-2.5,-15,272.61228787503205,272.61753175000194,273.10986054106615,273.10986054106615,273.1856138330186,273.1856138330186,273.1856138330186,273.6861800410552,1,,,,,,,,343263,001,2025-08-14_20h51.56.267,tilt_staircase,2024.2.4,None,2025-08-14 20h52.14.723332 -0700
,,,,,,,,,,,,,,,,,,,,,,,273.6934249160113,,,,,,,,,,,,,,,,,,,,,,,,,,,,,,,,,,,,,,,,,,,,,,,,,,,,,,,,,,,,,,,,,,posc_noss,30,15,15,-15,"[5, 2, 1, 0.5]",lin,1,1,8,5,23,132,down,0.5,0,,273.68712645804044,273.6934249160113,274.1764644160867,274.1764644160867,274.25216733303387,274.25216733303387,274.25813133304473,275.3285029580584,0,,,,,,,,343263,001,2025-08-14_20h51.56.267,tilt_staircase,2024.2.4,None,2025-08-14 20h52.14.723332 -0700
,,,,,,,,,,,,,,,,,,,,,,,275.33420504105743,,,,,,,,,,,,,,,,,,,,,,,,,,,,,,,,,,,,,,,,,,,,,,,,,,,,,,,,,,,,,,,,,,negc_poss,30,-15,15,-15,"[5, 2, 1, 0.5]",lin,1,1,8,2,23,133,up,0.5,2.5,15,275.3294752910733,275.33420504105743,275.8264364,275.8264364,275.90213783306535,275.90213783306535,275.90213783306535,277.004624,1,,,,,,,,343263,001,2025-08-14_20h51.56.267,tilt_staircase,2024.2.4,None,2025-08-14 20h52.14.723332 -0700
,,,,,,,,,,,,,,,,,,,,,,,277.01252783299424,,,,,,,,,,,,,,,,,,,,,,,,,,,,,,,,,,,,,,,,,,,,,,,,,,,,,,,,,,,,,,,,,,posc_poss,30,15,15,-15,"[5, 2, 1, 0.5]",lin,1,1,8,3,23,134,down,0.5,1,15,277.00614204106387,277.01252783299424,277.5022058750037,277.5022058750037,277.57533908297773,277.57533908297773,277.57533908297773,278.4708615409909,0,,,,,,,,343263,001,2025-08-14_20h51.56.267,tilt_staircase,2024.2.4,None,2025-08-14 20h52.14.723332 -0700
,,,,,,,,,,,,,,,,,,,,,,,278.47839720803313,,,,,,,,,,,,,,,,,,,,,,,,,,,,,,,,,,,,,,,,,,,,,,,,,,,,,,,,,,,,,,,,,,negc_negs,30,-15,15,-15,"[5, 2, 1, 0.5]",lin,1,1,8,0,23,135,down,0.5,-2.5,-15,278.47184712497983,278.47839720803313,278.96791891602334,278.96791891602334,279.0413136250572,279.0413136250572,279.0413136250572,280.30328495800495,1,,,,,,,,343263,001,2025-08-14_20h51.56.267,tilt_staircase,2024.2.4,None,2025-08-14 20h52.14.723332 -0700
,,,,,,,,,,,,,,,,,,,,,,,280.30896320799366,,,,,,,,,,,,,,,,,,,,,,,,,,,,,,,,,,,,,,,,,,,,,,,,,,,,,,,,,,,,,,,,,,posc_negs,30,15,15,-15,"[5, 2, 1, 0.5]",lin,1,1,8,1,23,136,down,0.5,-3,-15,280.3044164159801,280.30896320799366,280.8010273750406,280.8010273750406,280.87297479098197,280.87297479098197,280.87297479098197,281.5761337080039,0,,,,,,,,343263,001,2025-08-14_20h51.56.267,tilt_staircase,2024.2.4,None,2025-08-14 20h52.14.723332 -0700
,,,,,,,,,,,,,,,,,,,,,,,281.5843159999931,,,,,,,,,,,,,,,,,,,,,,,,,,,,,,,,,,,,,,,,,,,,,,,,,,,,,,,,,,,,,,,,,,negc_noss,30,-15,15,-15,"[5, 2, 1, 0.5]",lin,1,1,8,4,23,137,up,0.5,1,,281.5771607910283,281.5843159999931,282.07637370808516,282.07637370808516,282.1513040410355,282.1513040410355,282.1513040410355,282.7266935830703,1,,,,,,,,343263,001,2025-08-14_20h51.56.267,tilt_staircase,2024.2.4,None,2025-08-14 20h52.14.723332 -0700
,,,,,,,,,,,,,,,,,,,,,,,282.7344435410341,,,,,,,,,,,,,,,,,,,,,,,,,,,,,,,,,,,,,,,,,,,,,,,,,,,,,,,,,,,,,,,,,,negc_poss,30,-15,15,-15,"[5, 2, 1, 0.5]",lin,1,1,8,2,24,138,down,0.5,2,15,282.7277248330647,282.7344435410341,283.2261381660355,283.2261381660355,283.3015680409735,283.3015680409735,283.3015680409735,283.8762262080563,0,,,,,,,,343263,001,2025-08-14_20h51.56.267,tilt_staircase,2024.2.4,None,2025-08-14 20h52.14.723332 -0700
,,,,,,,,,,,,,,,,,,,,,,,283.8840446660761,,,,,,,,,,,,,,,,,,,,,,,,,,,,,,,,,,,,,,,,,,,,,,,,,,,,,,,,,,,,,,,,,,posc_noss,30,15,15,-15,"[5, 2, 1, 0.5]",lin,1,1,8,5,24,139,up,0.5,0.5,,283.87675304105505,283.8840446660761,284.3765167500824,284.3765167500824,284.45220275002066,284.45220275002066,284.45220275002066,286.58698729099706,0,,,,,,,,343263,001,2025-08-14_20h51.56.267,tilt_staircase,2024.2.4,None,2025-08-14 20h52.14.723332 -0700
,,,,,,,,,,,,,,,,,,,,,,,286.5944183750544,,,,,,,,,,,,,,,,,,,,,,,,,,,,,,,,,,,,,,,,,,,,,,,,,,,,,,,,,,,,,,,,,,posc_poss,30,15,15,-15,"[5, 2, 1, 0.5]",lin,1,1,8,3,24,140,up,0.5,1.5,15,286.5880112909945,286.5944183750544,287.08488058298826,287.08488058298826,287.1581379,287.1581379,287.1581379,289.25327175005805,0,,,,,,,,343263,001,2025-08-14_20h51.56.267,tilt_staircase,2024.2.4,None,2025-08-14 20h52.14.723332 -0700
,,,,,,,,,,,,,,,,,,,,,,,289.26077537506353,,,,,,,,,,,,,,,,,,,,,,,,,,,,,,,,,,,,,,,,,,,,,,,,,,,,,,,,,,,,,,,,,,posc_negs,30,15,15,-15,"[5, 2, 1, 0.5]",lin,1,1,8,1,24,141,up,0.5,-2.5,-15,289.2543957909802,289.26077537506353,289.75211729097646,289.75211729097646,289.8221079580253,289.8221079580253,289.8221079580253,290.7260246659862,0,,,,,,,,343263,001,2025-08-14_20h51.56.267,tilt_staircase,2024.2.4,None,2025-08-14 20h52.14.723332 -0700
,,,,,,,,,,,,,,,,,,,,,,,290.73406870802864,,,,,,,,,,,,,,,,,,,,,,,,,,,,,,,,,,,,,,,,,,,,,,,,,,,,,,,,,,,,,,,,,,negc_noss,30,-15,15,-15,"[5, 2, 1, 0.5]",lin,1,1,8,4,24,142,down,0.5,0.5,,290.72724154102616,290.73406870802864,291.2262740409933,291.2262740409933,291.3014763330575,291.3014763330575,291.3014763330575,292.1875977499876,1,,,,,,,,343263,001,2025-08-14_20h51.56.267,tilt_staircase,2024.2.4,None,2025-08-14 20h52.14.723332 -0700
,,,,,,,,,,,,,,,,,,,,,,,292.19527516607195,,,,,,,,,,,,,,,,,,,,,,,,,,,,,,,,,,,,,,,,,,,,,,,,,,,,,,,,,,,,,,,,,,negc_negs,30,-15,15,-15,"[5, 2, 1, 0.5]",lin,1,1,8,0,24,143,down,0.5,-3,-15,292.18876916600857,292.19527516607195,292.68477604107466,292.68477604107466,292.7566260830499,292.7566260830499,292.7566260830499,293.3705774580594,0,,,,,,,,343263,001,2025-08-14_20h51.56.267,tilt_staircase,2024.2.4,None,2025-08-14 20h52.14.723332 -0700
,,,,,,,,,,,,,,,,,,,,,,,293.37816491606645,,,,,,,,,,,,,,,,,,,,,,,,,,,,,,,,,,,,,,,,,,,,,,,,,,,,,,,,,,,,,,,,,,posc_noss,30,15,15,-15,"[5, 2, 1, 0.5]",lin,1,1,8,5,25,144,up,0.5,1,,293.37195187504403,293.37816491606645,293.86884500004817,293.86884500004817,293.94099937507417,293.94099937507417,293.94099937507417,294.6620305000106,1,,,,,,,,343263,001,2025-08-14_20h51.56.267,tilt_staircase,2024.2.4,None,2025-08-14 20h52.14.723332 -0700
,,,,,,,,,,,,,,,,,,,,,,,294.6678677080199,,,,,,,,,,,,,,,,,,,,,,,,,,,,,,,,,,,,,,,,,,,,,,,,,,,,,,,,,,,,,,,,,,negc_negs,30,-15,15,-15,"[5, 2, 1, 0.5]",lin,1,1,8,0,25,145,up,0.5,-2.5,-15,294.66330037498847,294.6678677080199,295.159377,295.159377,295.23489129100926,295.23489129100926,295.23489129100926,296.32888545806054,0,,,,,,,,343263,001,2025-08-14_20h51.56.267,tilt_staircase,2024.2.4,None,2025-08-14 20h52.14.723332 -0700
,,,,,,,,,,,,,,,,,,,,,,,296.3340365830809,,,,,,,,,,,,,,,,,,,,,,,,,,,,,,,,,,,,,,,,,,,,,,,,,,,,,,,,,,,,,,,,,,posc_poss,30,15,15,-15,"[5, 2, 1, 0.5]",lin,1,1,8,3,25,146,up,0.5,2,15,296.32982458302286,296.3340365830809,296.8260628749849,296.8260628749849,296.9021243749885,296.9021243749885,296.90823250007816,298.18731725006364,1,,,,,,,,343263,001,2025-08-14_20h51.56.267,tilt_staircase,2024.2.4,None,2025-08-14 20h52.14.723332 -0700
,,,,,,,,,,,,,,,,,,,,,,,298.1952645829879,,,,,,,,,,,,,,,,,,,,,,,,,,,,,,,,,,,,,,,,,,,,,,,,,,,,,,,,,,,,,,,,,,negc_noss,30,-15,15,-15,"[5, 2, 1, 0.5]",lin,1,1,8,4,25,147,down,0.5,0,,298.18867408297956,298.1952645829879,298.6854593330063,298.6854593330063,298.7582000410184,298.7582000410184,298.7582000410184,299.4205903330585,0,,,,,,,,343263,001,2025-08-14_20h51.56.267,tilt_staircase,2024.2.4,None,2025-08-14 20h52.14.723332 -0700
,,,,,,,,,,,,,,,,,,,,,,,299.42830812500324,,,,,,,,,,,,,,,,,,,,,,,,,,,,,,,,,,,,,,,,,,,,,,,,,,,,,,,,,,,,,,,,,,posc_negs,30,15,15,-15,"[5, 2, 1, 0.5]",lin,1,1,8,1,25,148,up,0.5,-2,-15,299.4216627080459,299.42830812500324,299.9190812080633,299.9190812080633,299.99163020798005,299.99163020798005,299.99163020798005,300.6035405410221,1,,,,,,,,343263,001,2025-08-14_20h51.56.267,tilt_staircase,2024.2.4,None,2025-08-14 20h52.14.723332 -0700
,,,,,,,,,,,,,,,,,,,,,,,300.6111032910412,,,,,,,,,,,,,,,,,,,,,,,,,,,,,,,,,,,,,,,,,,,,,,,,,,,,,,,,,,,,,,,,,,negc_poss,30,-15,15,-15,"[5, 2, 1, 0.5]",lin,1,1,8,2,25,149,up,0.5,2.5,15,300.60452520800754,300.6111032910412,301.10214454098605,301.10214454098605,301.1751087909797,301.1751087909797,301.1751087909797,301.90339200000744,1,,,,,,,,343263,001,2025-08-14_20h51.56.267,tilt_staircase,2024.2.4,None,2025-08-14 20h52.14.723332 -0700
,,,,,,,,,,,,,,,,,,,,,,,,,,,,,,,,,,,,,,,,,,,,,,,,,,,,,,,,,,,,,,,,,,,,,,,,,,,,,,,,,,,,,,,,,,,,,,,,,,,,,,,,,,,,,,,,,,,301.90355500008445,301.9126315000467,301.9126315000467,303.12503250001464,right,1.2099665829446167,None,343263,001,2025-08-14_20h51.56.267,tilt_staircase,2024.2.4,None,2025-08-14 20h52.14.723332 -0700