trials.thisTrialN,trials.stepSize,trials.intensity,thisRow.t,notes,trial.started,surround.started,center.started,resp.started,text.started,trial.stopped,participant,session,date,expName,psychopyVersion,frameRate,expStart,
0,5,20.0,0.04339204099960625,,0.03656375000718981,0.04339204099960625,0.04339204099960625,0.04339204099960625,0.04339204099960625,2.220710124936886,457284,001,2025-08-11_14h00.43.843,tilt_staircase,2024.2.4,None,2025-08-11 14h01.11.116305 -0700,
1,5,20.0,2.298470583045855,,2.2220678329467773,2.298470583045855,2.298470583045855,2.298470583045855,2.298470583045855,4.201329416013323,457284,001,2025-08-11_14h00.43.843,tilt_staircase,2024.2.4,None,2025-08-11 14h01.11.116305 -0700,
2,5,20.0,4.213152708020061,,4.20252575003542,4.213152708020061,4.213152708020061,4.213152708020061,4.213152708020061,4.518055415945128,457284,001,2025-08-11_14h00.43.843,tilt_staircase,2024.2.4,None,2025-08-11 14h01.11.116305 -0700,
3,5,20.0,4.522260957979597,,4.519260916044004,4.522260957979597,4.522260957979597,4.522260957979597,4.522260957979597,4.784769249963574,457284,001,2025-08-11_14h00.43.843,tilt_staircase,2024.2.4,None,2025-08-11 14h01.11.116305 -0700,
4,5,20.0,4.788761375006288,,4.785894874949008,4.788761375006288,4.788761375006288,4.788761375006288,4.788761375006288,4.921423999941908,457284,001,2025-08-11_14h00.43.843,tilt_staircase,2024.2.4,None,2025-08-11 14h01.11.116305 -0700,
5,5,20.0,4.932299374951981,,4.92252462496981,4.932299374951981,4.932299374951981,4.932299374951981,4.932299374951981,5.0382634999696165,457284,001,2025-08-11_14h00.43.843,tilt_staircase,2024.2.4,None,2025-08-11 14h01.11.116305 -0700,
6,5,20.0,5.048998665995896,,5.039368291036226,5.048998665995896,5.048998665995896,5.048998665995896,5.048998665995896,5.1515583749860525,457284,001,2025-08-11_14h00.43.843,tilt_staircase,2024.2.4,None,2025-08-11 14h01.11.116305 -0700,
7,5,20.0,5.155515208025463,,5.1526730000041425,5.155515208025463,5.155515208025463,5.155515208025463,5.155515208025463,5.252099290955812,457284,001,2025-08-11_14h00.43.843,tilt_staircase,2024.2.4,None,2025-08-11 14h01.11.116305 -0700,
8,5,20.0,5.256974374991842,,5.253457749960944,5.256974374991842,5.256974374991842,5.256974374991842,5.256974374991842,5.36846466595307,457284,001,2025-08-11_14h00.43.843,tilt_staircase,2024.2.4,None,2025-08-11 14h01.11.116305 -0700,
9,5,20.0,5.372546707978472,,5.369619915960357,5.372546707978472,5.372546707978472,5.372546707978472,5.372546707978472,5.468661000020802,457284,001,2025-08-11_14h00.43.843,tilt_staircase,2024.2.4,None,2025-08-11 14h01.11.116305 -0700,
10,5,20.0,5.472821249975823,,5.469794707954861,5.472821249975823,5.472821249975823,5.472821249975823,5.472821249975823,5.585095957969315,457284,001,2025-08-11_14h00.43.843,tilt_staircase,2024.2.4,None,2025-08-11 14h01.11.116305 -0700,
11,5,20.0,5.589146540965885,,5.586273249937221,5.589146540965885,5.589146540965885,5.589146540965885,5.589146540965885,5.855173415970057,457284,001,2025-08-11_14h00.43.843,tilt_staircase,2024.2.4,None,2025-08-11 14h01.11.116305 -0700,
12,5,20.0,5.866073832963593,,5.856302083004266,5.866073832963593,5.866073832963593,5.866073832963593,5.866073832963593,6.0684911659918725,457284,001,2025-08-11_14h00.43.843,tilt_staircase,2024.2.4,None,2025-08-11 14h01.11.116305 -0700,
13,5,20.0,6.076354290940799,,6.069656083011068,6.076354290940799,6.076354290940799,6.076354290940799,6.076354290940799,6.2555703750113025,457284,001,2025-08-11_14h00.43.843,tilt_staircase,2024.2.4,None,2025-08-11 14h01.11.116305 -0700,
14,5,20.0,6.2662209999980405,,6.256666957982816,6.2662209999980405,6.2662209999980405,6.2662209999980405,6.2662209999980405,6.469033624976873,457284,001,2025-08-11_14h00.43.843,tilt_staircase,2024.2.4,None,2025-08-11 14h01.11.116305 -0700,
15,5,20.0,6.473062332952395,,6.47021483303979,6.473062332952395,6.473062332952395,6.473062332952395,6.473062332952395,6.638570124981925,457284,001,2025-08-11_14h00.43.843,tilt_staircase,2024.2.4,None,2025-08-11 14h01.11.116305 -0700,
16,5,20.0,6.649753332952969,,6.639622332993895,6.649753332952969,6.649753332952969,6.649753332952969,6.649753332952969,6.768875499954447,457284,001,2025-08-11_14h00.43.843,tilt_staircase,2024.2.4,None,2025-08-11 14h01.11.116305 -0700,
17,5,20.0,6.772584958001971,,6.769927707966417,6.772584958001971,6.772584958001971,6.772584958001971,6.772584958001971,6.889486665953882,457284,001,2025-08-11_14h00.43.843,tilt_staircase,2024.2.4,None,2025-08-11 14h01.11.116305 -0700,
18,5,20.0,6.89986962499097,,6.890584875014611,6.89986962499097,6.89986962499097,6.89986962499097,6.89986962499097,7.018778083031066,457284,001,2025-08-11_14h00.43.843,tilt_staircase,2024.2.4,None,2025-08-11 14h01.11.116305 -0700,
19,5,20.0,7.022546416032128,,7.019839750020765,7.022546416032128,7.022546416032128,7.022546416032128,7.022546416032128,7.135782958008349,457284,001,2025-08-11_14h00.43.843,tilt_staircase,2024.2.4,None,2025-08-11 14h01.11.116305 -0700,
20,5,20.0,7.1396703330101445,,7.136806332971901,7.1396703330101445,7.1396703330101445,7.1396703330101445,7.1396703330101445,7.269446708029136,457284,001,2025-08-11_14h00.43.843,tilt_staircase,2024.2.4,None,2025-08-11 14h01.11.116305 -0700,
21,5,20.0,7.27335925004445,,7.270545499981381,7.27335925004445,7.27335925004445,7.27335925004445,7.27335925004445,7.406056666048244,457284,001,2025-08-11_14h00.43.843,tilt_staircase,2024.2.4,None,2025-08-11 14h01.11.116305 -0700,
22,5,20.0,7.416765291010961,,7.407219041022472,7.416765291010961,7.416765291010961,7.416765291010961,7.416765291010961,7.536211290978827,457284,001,2025-08-11_14h00.43.843,tilt_staircase,2024.2.4,None,2025-08-11 14h01.11.116305 -0700,
23,5,20.0,7.540286583011039,,7.53730500000529,7.540286583011039,7.540286583011039,7.540286583011039,7.540286583011039,7.656638665939681,457284,001,2025-08-11_14h00.43.843,tilt_staircase,2024.2.4,None,2025-08-11 14h01.11.116305 -0700,
24,5,20.0,7.666850124951452,,7.657745540956967,7.666850124951452,7.666850124951452,7.666850124951452,7.666850124951452,7.772809499991126,457284,001,2025-08-11_14h00.43.843,tilt_staircase,2024.2.4,None,2025-08-11 14h01.11.116305 -0700,
25,5,20.0,7.78359491599258,,7.773988457978703,7.78359491599258,7.78359491599258,7.78359491599258,7.78359491599258,7.886151249986142,457284,001,2025-08-11_14h00.43.843,tilt_staircase,2024.2.4,None,2025-08-11 14h01.11.116305 -0700,
26,5,20.0,7.890277666039765,,7.887266124947928,7.890277666039765,7.890277666039765,7.890277666039765,7.890277666039765,8.019233415951021,457284,001,2025-08-11_14h00.43.843,tilt_staircase,2024.2.4,None,2025-08-11 14h01.11.116305 -0700,
27,5,20.0,8.023098374949768,,8.020329124992713,8.023098374949768,8.023098374949768,8.023098374949768,8.023098374949768,8.156149207963608,457284,001,2025-08-11_14h00.43.843,tilt_staircase,2024.2.4,None,2025-08-11 14h01.11.116305 -0700,
28,5,20.0,8.167095541022718,,8.157256082980894,8.167095541022718,8.167095541022718,8.167095541022718,8.167095541022718,8.270204750006087,457284,001,2025-08-11_14h00.43.843,tilt_staircase,2024.2.4,None,2025-08-11 14h01.11.116305 -0700,
29,5,20.0,8.275192250031978,,8.271454583038576,8.275192250031978,8.275192250031978,8.275192250031978,8.275192250031978,8.386717165936716,457284,001,2025-08-11_14h00.43.843,tilt_staircase,2024.2.4,None,2025-08-11 14h01.11.116305 -0700,
30,5,20.0,8.391260582953691,,8.387917082989588,8.391260582953691,8.391260582953691,8.391260582953691,8.391260582953691,8.519772666040808,457284,001,2025-08-11_14h00.43.843,tilt_staircase,2024.2.4,None,2025-08-11 14h01.11.116305 -0700,
,,,8.523701041005552,,8.520873915986158,8.523701041005552,8.523701041005552,8.523701041005552,8.523701041005552,,,,,,,,,
