trials.thisTrialN,trials.stepSize,trials.intensity,thisRow.t,notes,trial.started,surround.started,center.started,resp.started,text.started,trial.stopped,participant,session,date,expName,psychopyVersion,frameRate,expStart,
0,5,20.0,0.04531529196538031,,0.037872917018830776,0.04531529196538031,0.04531529196538031,0.04531529196538031,0.04531529196538031,2.1733727080281824,537199,001,2025-08-11_13h02.59.617,tilt_staircase,2024.2.4,None,2025-08-11 13h03.06.483670 -0700,
1,5,20.0,2.276977082947269,,2.1746109999949113,2.276977082947269,2.276977082947269,2.276977082947269,2.276977082947269,4.487288875039667,537199,001,2025-08-11_13h02.59.617,tilt_staircase,2024.2.4,None,2025-08-11 13h03.06.483670 -0700,
2,5,20.0,4.501400167006068,,4.489273458020762,4.501400167006068,4.501400167006068,4.501400167006068,4.501400167006068,4.987432666937821,537199,001,2025-08-11_13h02.59.617,tilt_staircase,2024.2.4,None,2025-08-11 13h03.06.483670 -0700,
3,5,20.0,4.991643792018294,,4.988634875044227,4.991643792018294,4.991643792018294,4.991643792018294,4.991643792018294,5.270712708006613,537199,001,2025-08-11_13h02.59.617,tilt_staircase,2024.2.4,None,2025-08-11 13h03.06.483670 -0700,
4,5,20.0,5.274807082954794,,5.2718531669816,5.274807082954794,5.274807082954794,5.274807082954794,5.274807082954794,5.604193500010297,537199,001,2025-08-11_13h02.59.617,tilt_staircase,2024.2.4,None,2025-08-11 13h03.06.483670 -0700,
5,5,20.0,5.60829379200004,,5.605390958022326,5.60829379200004,5.60829379200004,5.60829379200004,5.60829379200004,5.807420541997999,537199,001,2025-08-11_13h02.59.617,tilt_staircase,2024.2.4,None,2025-08-11 13h03.06.483670 -0700,
6,5,20.0,5.8184560829540715,,5.808541083009914,5.8184560829540715,5.8184560829540715,5.8184560829540715,5.8184560829540715,5.954447707976215,537199,001,2025-08-11_13h02.59.617,tilt_staircase,2024.2.4,None,2025-08-11 13h03.06.483670 -0700,
7,5,20.0,5.958477749954909,,5.955618957988918,5.958477749954909,5.958477749954909,5.958477749954909,5.958477749954909,6.0876846249448135,537199,001,2025-08-11_13h02.59.617,tilt_staircase,2024.2.4,None,2025-08-11 13h03.06.483670 -0700,
8,5,20.0,6.091573207988404,,6.088821624987759,6.091573207988404,6.091573207988404,6.091573207988404,6.091573207988404,6.187886500032619,537199,001,2025-08-11_13h02.59.617,tilt_staircase,2024.2.4,None,2025-08-11 13h03.06.483670 -0700,
9,5,20.0,6.191922624944709,,6.189072374952957,6.191922624944709,6.191922624944709,6.191922624944709,6.191922624944709,6.307660499936901,537199,001,2025-08-11_13h02.59.617,tilt_staircase,2024.2.4,None,2025-08-11 13h03.06.483670 -0700,
10,5,20.0,6.31869241700042,,6.308819124940783,6.31869241700042,6.31869241700042,6.31869241700042,6.31869241700042,6.43791058298666,537199,001,2025-08-11_13h02.59.617,tilt_staircase,2024.2.4,None,2025-08-11 13h03.06.483670 -0700,
11,5,20.0,6.442065582959913,,6.439021207974292,6.442065582959913,6.442065582959913,6.442065582959913,6.442065582959913,6.557959249941632,537199,001,2025-08-11_13h02.59.617,tilt_staircase,2024.2.4,None,2025-08-11 13h03.06.483670 -0700,
12,5,20.0,6.5687507500406355,,6.559044957975857,6.5687507500406355,6.5687507500406355,6.5687507500406355,6.5687507500406355,6.757718208013102,537199,001,2025-08-11_13h02.59.617,tilt_staircase,2024.2.4,None,2025-08-11 13h03.06.483670 -0700,
13,5,20.0,6.768898500013165,,6.758794417022727,6.768898500013165,6.768898500013165,6.768898500013165,6.768898500013165,7.05502962495666,537199,001,2025-08-11_13h02.59.617,tilt_staircase,2024.2.4,None,2025-08-11 13h03.06.483670 -0700,
14,5,20.0,7.059244666947052,,7.056193292024545,7.059244666947052,7.059244666947052,7.059244666947052,7.059244666947052,7.338341417023912,537199,001,2025-08-11_13h02.59.617,tilt_staircase,2024.2.4,None,2025-08-11 13h03.06.483670 -0700,
15,5,20.0,7.3426258330000564,,7.339661333011463,7.3426258330000564,7.3426258330000564,7.3426258330000564,7.3426258330000564,7.774849417037331,537199,001,2025-08-11_13h02.59.617,tilt_staircase,2024.2.4,None,2025-08-11 13h03.06.483670 -0700,
16,5,20.0,7.785950666991994,,7.775923458044417,7.785950666991994,7.785950666991994,7.785950666991994,7.785950666991994,8.141998291946948,537199,001,2025-08-11_13h02.59.617,tilt_staircase,2024.2.4,None,2025-08-11 13h03.06.483670 -0700,
17,5,20.0,8.152822457952425,,8.143173457938246,8.152822457952425,8.152822457952425,8.152822457952425,8.152822457952425,8.505507666966878,537199,001,2025-08-11_13h02.59.617,tilt_staircase,2024.2.4,None,2025-08-11 13h03.06.483670 -0700,
18,5,20.0,8.509717916953377,,8.506692541996017,8.509717916953377,8.509717916953377,8.509717916953377,8.509717916953377,8.99225158302579,537199,001,2025-08-11_13h02.59.617,tilt_staircase,2024.2.4,None,2025-08-11 13h03.06.483670 -0700,
19,5,20.0,9.0031702920096,,8.993464082945138,9.0031702920096,9.0031702920096,9.0031702920096,9.0031702920096,9.308660208014771,537199,001,2025-08-11_13h02.59.617,tilt_staircase,2024.2.4,None,2025-08-11 13h03.06.483670 -0700,
20,5,20.0,9.31996612495277,,9.309711958048865,9.31996612495277,9.31996612495277,9.31996612495277,9.31996612495277,9.672688749968074,537199,001,2025-08-11_13h02.59.617,tilt_staircase,2024.2.4,None,2025-08-11 13h03.06.483670 -0700,
21,5,20.0,9.676618332974613,,9.673829874955118,9.676618332974613,9.676618332974613,9.676618332974613,9.676618332974613,10.09353120799642,537199,001,2025-08-11_13h02.59.617,tilt_staircase,2024.2.4,None,2025-08-11 13h03.06.483670 -0700,
22,5,20.0,10.103688125032932,,10.094731791992672,10.103688125032932,10.103688125032932,10.103688125032932,10.103688125032932,10.356510167010128,537199,001,2025-08-11_13h02.59.617,tilt_staircase,2024.2.4,None,2025-08-11 13h03.06.483670 -0700,
,,,10.361978749977425,,10.357684375019744,10.361978749977425,10.361978749977425,10.361978749977425,10.361978749977425,,,,,,,,,
