center,surround,correct,thisN,thisTrialN,thisRepN,key_resp_3.keys,key_resp_3.corr,key_resp_3.rt,key_resp_3.duration,key_resp_7.keys,key_resp_7.rt,key_resp_7.duration,opacity,key_resp_4.keys,key_resp_4.corr,key_resp_4.rt,key_resp_4.duration,practice_no_time.thisRepN,practice_no_time.thisTrialN,practice_no_time.thisN,practice_no_time.thisIndex,practice_timed.thisRepN,practice_timed.thisTrialN,practice_timed.thisN,practice_timed.thisIndex,thisRow.t,notes,instr.started,text_5.started,key_resp_2.started,instr.stopped,key_resp_2.keys,key_resp_2.rt,key_resp_2.duration,instr2.started,text_6.started,key_resp_6.started,instr2.stopped,key_resp_6.keys,key_resp_6.rt,key_resp_6.duration,practice_trial.started,key_resp_3.started,text_9.started,surround_practice.started,center_practice.started,text_9.stopped,practice_trial.stopped,practice_no_time.key_resp_3.keys,practice_no_time.key_resp_3.corr,practice_no_time.key_resp_3.rt,practice_no_time.key_resp_3.duration,practice_feedback.started,text_7.started,key_resp_7.started,practice_feedback.stopped,practice_no_time.key_resp_7.keys,practice_no_time.key_resp_7.rt,practice_no_time.key_resp_7.duration,instr3.started,text_8.started,key_resp_5.started,instr3.stopped,key_resp_5.keys,key_resp_5.rt,key_resp_5.duration,practice_trial_timed.started,key_resp_4.started,text_10.started,surround_practice_2.started,center_practice_2.started,text_10.stopped,surround_practice_2.stopped,center_practice_2.stopped,text_12.started,practice_trial_timed.stopped,practice_timed.key_resp_4.keys,practice_timed.key_resp_4.corr,practice_timed.key_resp_4.rt,practice_timed.key_resp_4.duration,practice_timed.key_resp_7.keys,practice_timed.key_resp_7.rt,practice_timed.key_resp_7.duration,start_instr.started,text_13.started,key_resp_8.started,start_instr.stopped,key_resp_8.keys,key_resp_8.rt,key_resp_8.duration,trials.label,trials.stepSize,trials.intensity,center_angle,surround_angle,trial.started,resp.started,text_2.started,surround_grating.started,center_grating.started,surround_grating.stopped,center_grating.stopped,text_3.started,text_2.stopped,trial.stopped,trials.response,end.started,text_4.started,key_resp.started,end.stopped,key_resp.keys,key_resp.rt,key_resp.duration,participant,session,date,expName,psychopyVersion,frameRate,expStart
,,,,,,,,,,,,,,,,,,,,,,,,,,,,0.049992166,0.060441583,0.060441583,2.1145623329794034,space,2.023339874926023,None,,,,,,,,,,,,,,,,,,,,,,,,,,,,,,,,,,,,,,,,,,,,,,,,,,,,,,,,,,,,,,,,,,,,,,,,,,,,,,,,701215,001,2025-08-14_13h31.56.552,tilt_staircase,2024.2.4,None,2025-08-14 13h33.50.153449 -0700
,,,,,,,,,,,,,,,,,,,,,,,,,,,,,,,,,,,2.1146054579876363,2.121015249984339,2.121015249984339,2.4601107080234215,space,0.33647845906671137,None,,,,,,,,,,,,,,,,,,,,,,,,,,,,,,,,,,,,,,,,,,,,,,,,,,,,,,,,,,,,,,,,,,,,,,,,,701215,001,2025-08-14_13h31.56.552,tilt_staircase,2024.2.4,None,2025-08-14 13h33.50.153449 -0700
30,0,right,0,0,0,right,1,1.2672147919656709,None,space,0.3037179579259828,None,,,,,,0,0,0,0,,,,,2.4840988750802353,,,,,,,,,,,,,,,,2.4752066250657663,2.4840988750802353,2.4840988750802353,2.9529582080431283,2.9529582080431283,2.9765478330664337,3.7551470000762492,right,1,1.2672147919656709,None,3.7578916660277173,3.855274499976076,3.855274499976076,4.159899083082564,space,0.3037179579259828,None,,,,,,,,,,,,,,,,,,,,,,,,,,,,,,,,,,,,,,,,,,,,,,,,,,,,,,,701215,001,2025-08-14_13h31.56.552,tilt_staircase,2024.2.4,None,2025-08-14 13h33.50.153449 -0700
-30,0,left,1,1,0,left,1,0.8951707500964403,None,space,0.12075783289037645,None,,,,,,0,1,1,1,,,,,4.169743375037797,,,,,,,,,,,,,,,,4.160113875055686,4.169743375037797,4.169743375037797,4.653066250029951,4.653066250029951,4.657691666041501,5.071803666069172,left,1,0.8951707500964403,None,5.071853125002235,5.075633500004187,5.075633500004187,5.205152666079812,space,0.12075783289037645,None,,,,,,,,,,,,,,,,,,,,,,,,,,,,,,,,,,,,,,,,,,,,,,,,,,,,,,,701215,001,2025-08-14_13h31.56.552,tilt_staircase,2024.2.4,None,2025-08-14 13h33.50.153449 -0700
30,60,right,2,2,0,right,1,1.1873027919791639,None,space,0.15805500000715256,None,,,,,,0,2,2,2,,,,,5.209683291031979,,,,,,,,,,,,,,,,5.205309250042774,5.209683291031979,5.209683291031979,5.703072290983982,5.703072290983982,5.709849041,6.4051881660707295,right,1,1.1873027919791639,None,6.405252499971539,6.409370250068605,6.409370250068605,6.571792375063524,space,0.15805500000715256,None,,,,,,,,,,,,,,,,,,,,,,,,,,,,,,,,,,,,,,,,,,,,,,,,,,,,,,,701215,001,2025-08-14_13h31.56.552,tilt_staircase,2024.2.4,None,2025-08-14 13h33.50.153449 -0700
-30,-60,left,3,3,0,left,1,0.9868528329534456,None,space,0.13636045902967453,None,,,,,,0,3,3,3,,,,,6.576344750006683,,,,,,,,,,,,,,,,6.571951040998101,6.576344750006683,6.576344750006683,7.069675708073191,7.069675708073191,7.076466833008453,7.572010040981695,left,1,0.9868528329534456,None,7.572058415971696,7.576831791,7.576831791,7.721671083010733,space,0.13636045902967453,None,,,,,,,,,,,,,,,,,,,,,,,,,,,,,,,,,,,,,,,,,,,,,,,,,,,,,,,701215,001,2025-08-14_13h31.56.552,tilt_staircase,2024.2.4,None,2025-08-14 13h33.50.153449 -0700
,,,,,,,,,,,,,,,,,,,,,,,,,,,,,,,,,,,,,,,,,,,,,,,,,,,,,,,,,,,,7.721749333082698,7.725987708079629,7.725987708079629,8.512264541,space,0.7846705409465358,None,,,,,,,,,,,,,,,,,,,,,,,,,,,,,,,,,,,,,,,,,,,,,,,,701215,001,2025-08-14_13h31.56.552,tilt_staircase,2024.2.4,None,2025-08-14 13h33.50.153449 -0700
-30,-60,left,0,0,0,,,,,space,0.1214078749762848,None,100,left,1,1.0289249169873074,None,,,,,0,0,0,0,8.528398958034813,,,,,,,,,,,,,,,,,,,,,,,,,,,9.559694,9.569810915971175,9.569810915971175,9.693165333010256,,,,,,,,,,,8.523800625000149,8.528398958034813,8.528398958034813,9.009707041084766,9.009707041084766,9.024382208,9.086296749999747,9.086296749999747,9.086296749999747,9.559631958021782,left,1,1.0289249169873074,None,space,0.1214078749762848,None,,,,,,,,,,,,,,,,,,,,,,,,,,,,,,,701215,001,2025-08-14_13h31.56.552,tilt_staircase,2024.2.4,None,2025-08-14 13h33.50.153449 -0700
-30,0,left,1,1,0,,,,,space,0.099701333,None,100,left,1,0.860365292,None,,,,,0,1,1,1,9.703048250055872,,,,,,,,,,,,,,,,,,,,,,,,,,,10.572039625025354,10.57692591601517,10.57692591601517,10.678913375013508,,,,,,,,,,,9.693350750021636,9.703048250055872,9.703048250055872,10.18635329103563,10.18635329103563,10.190943791065365,10.258118583005853,10.258118583005853,10.269620125065558,10.571985583053902,left,1,0.860365292,None,space,0.099701333,None,,,,,,,,,,,,,,,,,,,,,,,,,,,,,,,701215,001,2025-08-14_13h31.56.552,tilt_staircase,2024.2.4,None,2025-08-14 13h33.50.153449 -0700
30,60,right,2,2,0,,,,,space,0.11221375002060086,None,100,right,1,0.8243705410277471,None,,,,,0,2,2,2,10.686269249999896,,,,,,,,,,,,,,,,,,,,,,,,,,,11.512574707972817,11.519745707977563,11.519745707977563,11.63840033300221,,,,,,,,,,,10.679107208037749,10.686269249999896,10.686269249999896,11.175881000002846,11.175881000002846,11.175881000002846,11.253070458071306,11.253070458071306,11.253070458071306,11.512517208000645,right,1,0.8243705410277471,None,space,0.11221375002060086,None,,,,,,,,,,,,,,,,,,,,,,,,,,,,,,,701215,001,2025-08-14_13h31.56.552,tilt_staircase,2024.2.4,None,2025-08-14 13h33.50.153449 -0700
30,0,right,3,3,0,,,,,space,0.11743270792067051,None,100,right,1,0.8413761249976233,None,,,,,0,3,3,3,11.643501000013202,,,,,,,,,,,,,,,,,,,,,,,,,,,12.48865045804996,12.491968750022352,12.491968750022352,12.612284166039899,,,,,,,,,,,11.638580375001766,11.643501000013202,11.643501000013202,12.136296875076368,12.136296875076368,12.143292458029464,12.209973582997918,12.209973582997918,12.209973582997918,12.488598083029501,right,1,0.8413761249976233,None,space,0.11743270792067051,None,,,,,,,,,,,,,,,,,,,,,,,,,,,,,,,701215,001,2025-08-14_13h31.56.552,tilt_staircase,2024.2.4,None,2025-08-14 13h33.50.153449 -0700
-30,69,left,4,4,0,,,,,space,0.2590853329747915,None,0,left,1,1.2116767499828711,None,,,,,0,4,4,4,12.619738708017394,,,,,,,,,,,,,,,,,,,,,,,,,,,13.838875291054137,13.84323233307805,13.84323233307805,14.105197791010141,,,,,,,,,,,12.612469415995292,12.619738708017394,12.619738708017394,13.109934790991247,13.109934790991247,13.109934790991247,13.186409833026119,13.186409833026119,13.186409833026119,13.83881862508133,left,1,1.2116767499828711,None,space,0.2590853329747915,None,,,,,,,,,,,,,,,,,,,,,,,,,,,,,,,701215,001,2025-08-14_13h31.56.552,tilt_staircase,2024.2.4,None,2025-08-14 13h33.50.153449 -0700
30,69,right,5,5,0,,,,,space,0.14457775000482798,None,0,right,1,0.9476100000320002,None,,,,,0,5,5,5,14.110253208084032,,,,,,,,,,,,,,,,,,,,,,,,,,,15.060128250042908,15.069763874984346,15.069763874984346,15.221854333067313,,,,,,,,,,,14.105390332988463,14.110253208084032,14.110253208084032,14.60304845799692,14.60304845799692,14.609523250022903,14.676191958016716,14.676191958016716,14.676191958016716,15.060077750007622,right,1,0.9476100000320002,None,space,0.14457775000482798,None,,,,,,,,,,,,,,,,,,,,,,,,,,,,,,,701215,001,2025-08-14_13h31.56.552,tilt_staircase,2024.2.4,None,2025-08-14 13h33.50.153449 -0700
,,,,,,,,,,,,,,,,,,,,,,,,,,,,,,,,,,,,,,,,,,,,,,,,,,,,,,,,,,,,,,,,,,,,,,,,,,,,,,,,,,,,15.221930040977895,15.22600704105571,15.22600704105571,17.238706541014835,space,2.007503000088036,None,,,,,,,,,,,,,,,,,,,,,,,,701215,001,2025-08-14_13h31.56.552,tilt_staircase,2024.2.4,None,2025-08-14 13h33.50.153449 -0700
,,,,,,,,,,,,,,,,,,,,,,,,,,17.357265583006665,,,,,,,,,,,,,,,,,,,,,,,,,,,,,,,,,,,,,,,,,,,,,,,,,,,,,,,,,,,,,,,,,posc_negs,5,15,15,-30,17.351759333047085,17.357265583006665,17.357265583006665,17.736340207979083,17.736340207979083,17.808281040983275,17.808281040983275,17.808281040983275,17.85303554101847,18.55983133299742,1,,,,,,,,701215,001,2025-08-14_13h31.56.552,tilt_staircase,2024.2.4,None,2025-08-14 13h33.50.153449 -0700
,,,,,,,,,,,,,,,,,,,,,,,,,,18.56966637505684,,,,,,,,,,,,,,,,,,,,,,,,,,,,,,,,,,,,,,,,,,,,,,,,,,,,,,,,,,,,,,,,,negc_poss,5,-15,-15,30,18.560088041005656,18.56966637505684,18.56966637505684,19.052993666031398,19.052993666031398,19.124187625013292,19.124187625013292,19.13638920802623,19.05751654098276,19.605261416058056,0,,,,,,,,701215,001,2025-08-14_13h31.56.552,tilt_staircase,2024.2.4,None,2025-08-14 13h33.50.153449 -0700
,,,,,,,,,,,,,,,,,,,,,,,,,,19.609445583075285,,,,,,,,,,,,,,,,,,,,,,,,,,,,,,,,,,,,,,,,,,,,,,,,,,,,,,,,,,,,,,,,,posc_poss,5,15,15,30,19.605443999986164,19.609445583075285,19.609445583075285,20.10292188,20.10292188,20.176242500077933,20.176242500077933,20.176242500077933,20.10941529099364,20.659740458009765,1,,,,,,,,701215,001,2025-08-14_13h31.56.552,tilt_staircase,2024.2.4,None,2025-08-14 13h33.50.153449 -0700
,,,,,,,,,,,,,,,,,,,,,,,,,,20.66967733297497,,,,,,,,,,,,,,,,,,,,,,,,,,,,,,,,,,,,,,,,,,,,,,,,,,,,,,,,,,,,,,,,,negc_negs,5,-15,-15,-30,20.659924541017972,20.66967733297497,20.66967733297497,21.152941875043325,21.152941875043325,21.22421504103113,21.22421504103113,21.23643779102713,21.157608082983643,21.68868979101535,0,,,,,,,,701215,001,2025-08-14_13h31.56.552,tilt_staircase,2024.2.4,None,2025-08-14 13h33.50.153449 -0700
,,,,,,,,,,,,,,,,,,,,,,,,,,21.692362374975346,,,,,,,,,,,,,,,,,,,,,,,,,,,,,,,,,,,,,,,,,,,,,,,,,,,,,,,,,,,,,,,,,posc_noss,5,15,15,,21.688869833014905,21.692362374975346,21.692362374975346,22.18639229098335,22.18639229098335,22.257962750038132,22.257962750038132,22.257962750038132,22.18639229098335,22.77177725,1,,,,,,,,701215,001,2025-08-14_13h31.56.552,tilt_staircase,2024.2.4,None,2025-08-14 13h33.50.153449 -0700
,,,,,,,,,,,,,,,,,,,,,,,,,,22.775538208079524,,,,,,,,,,,,,,,,,,,,,,,,,,,,,,,,,,,,,,,,,,,,,,,,,,,,,,,,,,,,,,,,,negc_noss,5,-15,-15,,22.77198108297307,22.775538208079524,22.775538208079524,23.269658125005662,23.269658125005662,23.342311791027896,23.342311791027896,23.342311791027896,23.27512820798438,23.69335395807866,0,,,,,,,,701215,001,2025-08-14_13h31.56.552,tilt_staircase,2024.2.4,None,2025-08-14 13h33.50.153449 -0700
,,,,,,,,,,,,,,,,,,,,,,,,,,23.702954833046533,,,,,,,,,,,,,,,,,,,,,,,,,,,,,,,,,,,,,,,,,,,,,,,,,,,,,,,,,,,,,,,,,negc_noss,5,-10,-10,,23.69354533299338,23.702954833046533,23.702954833046533,24.186303499969654,24.186303499969654,24.257708583027124,24.257708583027124,24.269528791075572,24.19079895806499,24.721851582988165,0,,,,,,,,701215,001,2025-08-14_13h31.56.552,tilt_staircase,2024.2.4,None,2025-08-14 13h33.50.153449 -0700
,,,,,,,,,,,,,,,,,,,,,,,,,,24.72439695801586,,,,,,,,,,,,,,,,,,,,,,,,,,,,,,,,,,,,,,,,,,,,,,,,,,,,,,,,,,,,,,,,,negc_poss,5,-10,-10,30,24.722046250011772,24.72439695801586,24.72439695801586,25.219647916033864,25.219647916033864,25.29098504106514,25.29098504106514,25.29098504106514,25.219647916033864,25.826807208009996,0,,,,,,,,701215,001,2025-08-14_13h31.56.552,tilt_staircase,2024.2.4,None,2025-08-14 13h33.50.153449 -0700
,,,,,,,,,,,,,,,,,,,,,,,,,,25.83640308305621,,,,,,,,,,,,,,,,,,,,,,,,,,,,,,,,,,,,,,,,,,,,,,,,,,,,,,,,,,,,,,,,,negc_negs,5,-10,-10,-30,25.82697716599796,25.83640308305621,25.83640308305621,26.31957438,26.31957438,26.39101300004404,26.39101300004404,26.402900458080694,26.324325041030534,26.82623379107099,0,,,,,,,,701215,001,2025-08-14_13h31.56.552,tilt_staircase,2024.2.4,None,2025-08-14 13h33.50.153449 -0700
,,,,,,,,,,,,,,,,,,,,,,,,,,26.836293083033524,,,,,,,,,,,,,,,,,,,,,,,,,,,,,,,,,,,,,,,,,,,,,,,,,,,,,,,,,,,,,,,,,posc_noss,5,10,10,,26.82641108,26.836293083033524,26.836293083033524,27.31970991601702,27.31970991601702,27.391087374999188,27.391087374999188,27.40298775001429,27.324356207973324,27.721801500068977,1,,,,,,,,701215,001,2025-08-14_13h31.56.552,tilt_staircase,2024.2.4,None,2025-08-14 13h33.50.153449 -0700
,,,,,,,,,,,,,,,,,,,,,,,,,,27.72540004097391,,,,,,,,,,,,,,,,,,,,,,,,,,,,,,,,,,,,,,,,,,,,,,,,,,,,,,,,,,,,,,,,,posc_negs,5,10,10,-30,27.721981500042602,27.72540004097391,27.72540004097391,28.21954004105646,28.21954004105646,28.29075412498787,28.29075412498787,28.29075412498787,28.21954004105646,28.778731749975123,1,,,,,,,,701215,001,2025-08-14_13h31.56.552,tilt_staircase,2024.2.4,None,2025-08-14 13h33.50.153449 -0700
,,,,,,,,,,,,,,,,,,,,,,,,,,28.78639320807997,,,,,,,,,,,,,,,,,,,,,,,,,,,,,,,,,,,,,,,,,,,,,,,,,,,,,,,,,,,,,,,,,posc_poss,5,10,10,30,28.778910833061673,28.78639320807997,28.78639320807997,29.275550000020303,29.275550000020303,29.353001083014533,29.353001083014533,29.353001083014533,29.275550000020303,29.738359500071965,1,,,,,,,,701215,001,2025-08-14_13h31.56.552,tilt_staircase,2024.2.4,None,2025-08-14 13h33.50.153449 -0700
,,,,,,,,,,,,,,,,,,,,,,,,,,29.74293804098852,,,,,,,,,,,,,,,,,,,,,,,,,,,,,,,,,,,,,,,,,,,,,,,,,,,,,,,,,,,,,,,,,negc_noss,5,-5,-5,,29.73853362502996,29.74293804098852,29.74293804098852,30.236195791047066,30.236195791047066,30.309033041005023,30.309033041005023,30.309033041005023,30.242692791041918,30.726838333066553,0,,,,,,,,701215,001,2025-08-14_13h31.56.552,tilt_staircase,2024.2.4,None,2025-08-14 13h33.50.153449 -0700
,,,,,,,,,,,,,,,,,,,,,,,,,,30.736241874983534,,,,,,,,,,,,,,,,,,,,,,,,,,,,,,,,,,,,,,,,,,,,,,,,,,,,,,,,,,,,,,,,,posc_negs,5,5,5,-30,30.727013916010037,30.736241874983534,30.736241874983534,31.21953266602941,31.21953266602941,31.29101841605734,31.29101841605734,31.30307054100558,31.224209708045237,31.70549637498334,1,,,,,,,,701215,001,2025-08-14_13h31.56.552,tilt_staircase,2024.2.4,None,2025-08-14 13h33.50.153449 -0700
,,,,,,,,,,,,,,,,,,,,,,,,,,31.709279750008136,,,,,,,,,,,,,,,,,,,,,,,,,,,,,,,,,,,,,,,,,,,,,,,,,,,,,,,,,,,,,,,,,negc_negs,5,-5,-5,-30,31.70569420803804,31.709279750008136,31.709279750008136,32.20301079098135,32.20301079098135,32.27605341607705,32.27605341607705,32.27605341607705,32.209820957970805,32.75950471,0,,,,,,,,701215,001,2025-08-14_13h31.56.552,tilt_staircase,2024.2.4,None,2025-08-14 13h33.50.153449 -0700
,,,,,,,,,,,,,,,,,,,,,,,,,,32.76964729104657,,,,,,,,,,,,,,,,,,,,,,,,,,,,,,,,,,,,,,,,,,,,,,,,,,,,,,,,,,,,,,,,,posc_poss,5,5,5,30,32.75967825006228,32.76964729104657,32.76964729104657,33.25311537506059,33.25311537506059,33.32454088,33.32454088,33.336444750078954,33.258403166080825,33.645638291025534,1,,,,,,,,701215,001,2025-08-14_13h31.56.552,tilt_staircase,2024.2.4,None,2025-08-14 13h33.50.153449 -0700
,,,,,,,,,,,,,,,,,,,,,,,,,,33.652977957972325,,,,,,,,,,,,,,,,,,,,,,,,,,,,,,,,,,,,,,,,,,,,,,,,,,,,,,,,,,,,,,,,,negc_poss,5,-5,-5,30,33.64588966604788,33.652977957972325,33.652977957972325,34.14221579104196,34.14221579104196,34.21969549998175,34.21969549998175,34.21969549998175,34.14221579104196,34.55526533303782,0,,,,,,,,701215,001,2025-08-14_13h31.56.552,tilt_staircase,2024.2.4,None,2025-08-14 13h33.50.153449 -0700
,,,,,,,,,,,,,,,,,,,,,,,,,,34.55886041605845,,,,,,,,,,,,,,,,,,,,,,,,,,,,,,,,,,,,,,,,,,,,,,,,,,,,,,,,,,,,,,,,,posc_noss,5,5,5,,34.555490541039035,34.55886041605845,34.55886041605845,35.052919208072126,35.052919208072126,35.124328791047446,35.124328791047446,35.124328791047446,35.052919208072126,35.45508904,1,,,,,,,,701215,001,2025-08-14_13h31.56.552,tilt_staircase,2024.2.4,None,2025-08-14 13h33.50.153449 -0700
,,,,,,,,,,,,,,,,,,,,,,,,,,35.458710583043285,,,,,,,,,,,,,,,,,,,,,,,,,,,,,,,,,,,,,,,,,,,,,,,,,,,,,,,,,,,,,,,,,negc_poss,5,0,0,30,35.45529187505599,35.458710583043285,35.458710583043285,35.95289120799862,35.95289120799862,36.023925041081384,36.023925041081384,36.023925041081384,35.95289120799862,39.71211804100312,0,,,,,,,,701215,001,2025-08-14_13h31.56.552,tilt_staircase,2024.2.4,None,2025-08-14 13h33.50.153449 -0700
,,,,,,,,,,,,,,,,,,,,,,,,,,39.71964071,,,,,,,,,,,,,,,,,,,,,,,,,,,,,,,,,,,,,,,,,,,,,,,,,,,,,,,,,,,,,,,,,posc_noss,5,0,0,,39.71229612501338,39.71964071,39.71964071,40.20960925007239,40.20960925007239,40.286318207974546,40.286318207974546,40.286318207974546,40.20960925007239,40.926937208045274,1,,,,,,,,701215,001,2025-08-14_13h31.56.552,tilt_staircase,2024.2.4,None,2025-08-14 13h33.50.153449 -0700
,,,,,,,,,,,,,,,,,,,,,,,,,,40.936167625011876,,,,,,,,,,,,,,,,,,,,,,,,,,,,,,,,,,,,,,,,,,,,,,,,,,,,,,,,,,,,,,,,,negc_noss,5,0,0,,40.927125166053884,40.936167625011876,40.936167625011876,41.419608999975026,41.419608999975026,41.490760083077475,41.490760083077475,41.50301870808471,41.4243805,41.91210583306383,1,,,,,,,,701215,001,2025-08-14_13h31.56.552,tilt_staircase,2024.2.4,None,2025-08-14 13h33.50.153449 -0700
,,,,,,,,,,,,,,,,,,,,,,,,,,41.91969958296977,,,,,,,,,,,,,,,,,,,,,,,,,,,,,,,,,,,,,,,,,,,,,,,,,,,,,,,,,,,,,,,,,negc_negs,5,0,0,-30,41.91228966601193,41.91969958296977,41.91969958296977,42.40964162501041,42.40964162501041,42.48627137497533,42.48627137497533,42.48627137497533,42.40964162501041,43.045139833004214,1,,,,,,,,701215,001,2025-08-14_13h31.56.552,tilt_staircase,2024.2.4,None,2025-08-14 13h33.50.153449 -0700
,,,,,,,,,,,,,,,,,,,,,,,,,,43.05303625005763,,,,,,,,,,,,,,,,,,,,,,,,,,,,,,,,,,,,,,,,,,,,,,,,,,,,,,,,,,,,,,,,,posc_poss,5,0,0,30,43.04532283300068,43.05303625005763,43.05303625005763,43.54305479105096,43.54305479105096,43.619660833035596,43.619660833035596,43.619660833035596,43.54305479105096,44.96003837499302,1,,,,,,,,701215,001,2025-08-14_13h31.56.552,tilt_staircase,2024.2.4,None,2025-08-14 13h33.50.153449 -0700
,,,,,,,,,,,,,,,,,,,,,,,,,,44.969625500030816,,,,,,,,,,,,,,,,,,,,,,,,,,,,,,,,,,,,,,,,,,,,,,,,,,,,,,,,,,,,,,,,,posc_negs,5,0,0,-30,44.960221166023985,44.969625500030816,44.969625500030816,45.45307808299549,45.45307808299549,45.524116790969856,45.524116790969856,45.53625358303543,45.46408766601235,46.00525337504223,1,,,,,,,,701215,001,2025-08-14_13h31.56.552,tilt_staircase,2024.2.4,None,2025-08-14 13h33.50.153449 -0700
,,,,,,,,,,,,,,,,,,,,,,,,,,46.009696583030745,,,,,,,,,,,,,,,,,,,,,,,,,,,,,,,,,,,,,,,,,,,,,,,,,,,,,,,,,,,,,,,,,posc_poss,5,-5,-5,30,46.00545387505554,46.009696583030745,46.009696583030745,46.50288320798427,46.50288320798427,46.57634012505878,46.57634012505878,46.57634012505878,46.509803832974285,47.02622275007889,0,,,,,,,,701215,001,2025-08-14_13h31.56.552,tilt_staircase,2024.2.4,None,2025-08-14 13h33.50.153449 -0700
,,,,,,,,,,,,,,,,,,,,,,,,,,47.03628387500066,,,,,,,,,,,,,,,,,,,,,,,,,,,,,,,,,,,,,,,,,,,,,,,,,,,,,,,,,,,,,,,,,posc_negs,5,-5,-5,-30,47.026395500055514,47.03628387500066,47.03628387500066,47.51956720801536,47.51956720801536,47.59112608304713,47.59112608304713,47.60281075001694,47.52439679100644,48.04579529108014,0,,,,,,,,701215,001,2025-08-14_13h31.56.552,tilt_staircase,2024.2.4,None,2025-08-14 13h33.50.153449 -0700
,,,,,,,,,,,,,,,,,,,,,,,,,,48.052933332975954,,,,,,,,,,,,,,,,,,,,,,,,,,,,,,,,,,,,,,,,,,,,,,,,,,,,,,,,,,,,,,,,,negc_poss,5,5,5,30,48.04598000005353,48.052933332975954,48.052933332975954,48.54311941599008,48.54311941599008,48.619594749994576,48.619594749994576,48.619594749994576,48.54311941599008,49.07300441607367,1,,,,,,,,701215,001,2025-08-14_13h31.56.552,tilt_staircase,2024.2.4,None,2025-08-14 13h33.50.153449 -0700
,,,,,,,,,,,,,,,,,,,,,,,,,,49.076714541064575,,,,,,,,,,,,,,,,,,,,,,,,,,,,,,,,,,,,,,,,,,,,,,,,,,,,,,,,,,,,,,,,,negc_noss,2,-2,-2,,49.07318962505087,49.076714541064575,49.076714541064575,49.56950920796953,49.56950920796953,49.64324950007722,49.64324950007722,49.64324950007722,49.576381333055906,50.205202708020806,0,,,,,,,,701215,001,2025-08-14_13h31.56.552,tilt_staircase,2024.2.4,None,2025-08-14 13h33.50.153449 -0700
,,,,,,,,,,,,,,,,,,,,,,,,,,50.20956445799675,,,,,,,,,,,,,,,,,,,,,,,,,,,,,,,,,,,,,,,,,,,,,,,,,,,,,,,,,,,,,,,,,posc_noss,5,-5,-5,,50.20541879103985,50.20956445799675,50.20956445799675,50.70292758301366,50.70292758301366,50.77547345799394,50.77547345799394,50.77547345799394,50.709579374990426,51.17182545806281,0,,,,,,,,701215,001,2025-08-14_13h31.56.552,tilt_staircase,2024.2.4,None,2025-08-14 13h33.50.153449 -0700
,,,,,,,,,,,,,,,,,,,,,,,,,,51.17614075005986,,,,,,,,,,,,,,,,,,,,,,,,,,,,,,,,,,,,,,,,,,,,,,,,,,,,,,,,,,,,,,,,,negc_negs,2,-2,-2,-30,51.17200083297212,51.17614075005986,51.17614075005986,51.69360025005881,51.69360025005881,51.79391679097898,51.79391679097898,51.79391679097898,51.69360025005881,52.52698591607623,0,,,,,,,,701215,001,2025-08-14_13h31.56.552,tilt_staircase,2024.2.4,None,2025-08-14 13h33.50.153449 -0700
,,,,,,,,,,,,,,,,,,,,,,,,,,52.53631466603838,,,,,,,,,,,,,,,,,,,,,,,,,,,,,,,,,,,,,,,,,,,,,,,,,,,,,,,,,,,,,,,,,posc_noss,2,-3,-3,,52.52721620805096,52.53631466603838,52.53631466603838,53.01963245798834,53.01963245798834,53.090565958060324,53.090565958060324,53.10296079097316,53.02395870804321,53.52634120802395,0,,,,,,,,701215,001,2025-08-14_13h31.56.552,tilt_staircase,2024.2.4,None,2025-08-14 13h33.50.153449 -0700
,,,,,,,,,,,,,,,,,,,,,,,,,,53.536271290970035,,,,,,,,,,,,,,,,,,,,,,,,,,,,,,,,,,,,,,,,,,,,,,,,,,,,,,,,,,,,,,,,,negc_poss,2,3,3,30,53.526520290994085,53.536271290970035,53.536271290970035,54.019593041040935,54.019593041040935,54.09070429101121,54.09070429101121,54.10293050005566,54.02414683299139,54.55534608301241,1,,,,,,,,701215,001,2025-08-14_13h31.56.552,tilt_staircase,2024.2.4,None,2025-08-14 13h33.50.153449 -0700
,,,,,,,,,,,,,,,,,,,,,,,,,,54.55901988,,,,,,,,,,,,,,,,,,,,,,,,,,,,,,,,,,,,,,,,,,,,,,,,,,,,,,,,,,,,,,,,,negc_negs,1,-1,-1,-30,54.55553029105067,54.55901988,54.55901988,55.052903125062585,55.052903125062585,55.123986083082855,55.123986083082855,55.123986083082855,55.052903125062585,55.62195541604888,1,,,,,,,,701215,001,2025-08-14_13h31.56.552,tilt_staircase,2024.2.4,None,2025-08-14 13h33.50.153449 -0700
,,,,,,,,,,,,,,,,,,,,,,,,,,55.625657791038975,,,,,,,,,,,,,,,,,,,,,,,,,,,,,,,,,,,,,,,,,,,,,,,,,,,,,,,,,,,,,,,,,posc_negs,2,-3,-3,-30,55.622153041069396,55.625657791038975,55.625657791038975,56.119591415976174,56.119591415976174,56.19103416602593,56.19103416602593,56.19103416602593,56.119591415976174,56.721696124994196,0,,,,,,,,701215,001,2025-08-14_13h31.56.552,tilt_staircase,2024.2.4,None,2025-08-14 13h33.50.153449 -0700
,,,,,,,,,,,,,,,,,,,,,,,,,,56.72525408305228,,,,,,,,,,,,,,,,,,,,,,,,,,,,,,,,,,,,,,,,,,,,,,,,,,,,,,,,,,,,,,,,,posc_poss,2,-3,-3,30,56.72187545802444,56.72525408305228,56.72525408305228,57.21951129101217,57.21951129101217,57.29092208307702,57.29092208307702,57.29092208307702,57.21951129101217,57.778642749995925,0,,,,,,,,701215,001,2025-08-14_13h31.56.552,tilt_staircase,2024.2.4,None,2025-08-14 13h33.50.153449 -0700
,,,,,,,,,,,,,,,,,,,,,,,,,,57.78628283308353,,,,,,,,,,,,,,,,,,,,,,,,,,,,,,,,,,,,,,,,,,,,,,,,,,,,,,,,,,,,,,,,,negc_noss,1,-1,-1,,57.778819791041315,57.78628283308353,57.78628283308353,58.286364916013554,58.286364916013554,58.35742154100444,58.35742154100444,58.352940874989145,58.286364916013554,59.00522308,0,,,,,,,,701215,001,2025-08-14_13h31.56.552,tilt_staircase,2024.2.4,None,2025-08-14 13h33.50.153449 -0700
,,,,,,,,,,,,,,,,,,,,,,,,,,59.00987012498081,,,,,,,,,,,,,,,,,,,,,,,,,,,,,,,,,,,,,,,,,,,,,,,,,,,,,,,,,,,,,,,,,posc_noss,2,-1,-1,,59.00542170798872,59.00987012498081,59.00987012498081,59.502862000023015,59.502862000023015,59.57609550002962,59.57609550002962,59.57609550002962,59.509539291029796,60.07180445804261,0,,,,,,,,701215,001,2025-08-14_13h31.56.552,tilt_staircase,2024.2.4,None,2025-08-14 13h33.50.153449 -0700
,,,,,,,,,,,,,,,,,,,,,,,,,,60.076164875063114,,,,,,,,,,,,,,,,,,,,,,,,,,,,,,,,,,,,,,,,,,,,,,,,,,,,,,,,,,,,,,,,,posc_negs,2,-1,-1,-30,60.07198570808396,60.076164875063114,60.076164875063114,60.56960575003177,60.56960575003177,60.64327770797536,60.64327770797536,60.64327770797536,60.57612808304839,61.18885608308483,1,,,,,,,,701215,001,2025-08-14_13h31.56.552,tilt_staircase,2024.2.4,None,2025-08-14 13h33.50.153449 -0700
,,,,,,,,,,,,,,,,,,,,,,,,,,61.192865333054215,,,,,,,,,,,,,,,,,,,,,,,,,,,,,,,,,,,,,,,,,,,,,,,,,,,,,,,,,,,,,,,,,negc_noss,1,0,0,,61.18906425,61.192865333054215,61.192865333054215,61.68612321,61.68612321,61.75759312498849,61.75759312498849,61.75759312498849,61.68612321,62.35997562506236,1,,,,,,,,701215,001,2025-08-14_13h31.56.552,tilt_staircase,2024.2.4,None,2025-08-14 13h33.50.153449 -0700
,,,,,,,,,,,,,,,,,,,,,,,,,,62.36949895799626,,,,,,,,,,,,,,,,,,,,,,,,,,,,,,,,,,,,,,,,,,,,,,,,,,,,,,,,,,,,,,,,,posc_poss,2,-1,-1,30,62.36015441606287,62.36949895799626,62.36949895799626,62.85283783299383,62.85283783299383,62.92417991603725,62.92417991603725,62.936292374972254,62.85790587507654,63.45969387504738,0,,,,,,,,701215,001,2025-08-14_13h31.56.552,tilt_staircase,2024.2.4,None,2025-08-14 13h33.50.153449 -0700
,,,,,,,,,,,,,,,,,,,,,,,,,,63.46961170807481,,,,,,,,,,,,,,,,,,,,,,,,,,,,,,,,,,,,,,,,,,,,,,,,,,,,,,,,,,,,,,,,,negc_negs,0.5,-1.5,-1.5,-30,63.459863000083715,63.46961170807481,63.46961170807481,63.952827624976635,63.952827624976635,64.02392108307686,64.02392108307686,64.03621129097883,63.95766737498343,64.69333020807244,0,,,,,,,,701215,001,2025-08-14_13h31.56.552,tilt_staircase,2024.2.4,None,2025-08-14 13h33.50.153449 -0700
,,,,,,,,,,,,,,,,,,,,,,,,,,64.70293595804833,,,,,,,,,,,,,,,,,,,,,,,,,,,,,,,,,,,,,,,,,,,,,,,,,,,,,,,,,,,,,,,,,negc_poss,2,1,1,30,64.69349924998824,64.70293595804833,64.70293595804833,65.18626617,65.18626617,65.25722837506328,65.25722837506328,65.26964216597844,65.19098762504291,68.51148912508506,0,,,,,,,,701215,001,2025-08-14_13h31.56.552,tilt_staircase,2024.2.4,None,2025-08-14 13h33.50.153449 -0700
,,,,,,,,,,,,,,,,,,,,,,,,,,68.51963041606359,,,,,,,,,,,,,,,,,,,,,,,,,,,,,,,,,,,,,,,,,,,,,,,,,,,,,,,,,,,,,,,,,negc_noss,0.5,-0.5,-0.5,,68.51167013,68.51963041606359,68.51963041606359,69.00959438,69.00959438,69.08625108306296,69.08625108306296,69.08625108306296,69.00959438,69.67186313,1,,,,,,,,701215,001,2025-08-14_13h31.56.552,tilt_staircase,2024.2.4,None,2025-08-14 13h33.50.153449 -0700
,,,,,,,,,,,,,,,,,,,,,,,,,,69.67626400000881,,,,,,,,,,,,,,,,,,,,,,,,,,,,,,,,,,,,,,,,,,,,,,,,,,,,,,,,,,,,,,,,,posc_noss,2,1,1,,69.67204441607464,69.67626400000881,69.67626400000881,70.16954216605518,70.16954216605518,70.24283567,70.24283567,70.24283567,70.17653087503277,70.66008104104549,1,,,,,,,,701215,001,2025-08-14_13h31.56.552,tilt_staircase,2024.2.4,None,2025-08-14 13h33.50.153449 -0700
,,,,,,,,,,,,,,,,,,,,,,,,,,70.66950691607781,,,,,,,,,,,,,,,,,,,,,,,,,,,,,,,,,,,,,,,,,,,,,,,,,,,,,,,,,,,,,,,,,negc_negs,0.25,-1.25,-1.25,-30,70.66025496,70.66950691607781,70.66950691607781,71.15291158,71.15291158,71.22391963,71.22391963,71.23624554101843,71.15752354101278,73.67204379104078,1,,,,,,,,701215,001,2025-08-14_13h31.56.552,tilt_staircase,2024.2.4,None,2025-08-14 13h33.50.153449 -0700
,,,,,,,,,,,,,,,,,,,,,,,,,,73.67637220805045,,,,,,,,,,,,,,,,,,,,,,,,,,,,,,,,,,,,,,,,,,,,,,,,,,,,,,,,,,,,,,,,,posc_negs,1,-2,-2,-30,73.67222625005525,73.67637220805045,73.67637220805045,74.16955125005916,74.16955125005916,74.24271162506193,74.24271162506193,74.24271162506193,74.17692016600631,74.81215604103636,0,,,,,,,,701215,001,2025-08-14_13h31.56.552,tilt_staircase,2024.2.4,None,2025-08-14 13h33.50.153449 -0700
,,,,,,,,,,,,,,,,,,,,,,,,,,74.81951658299658,,,,,,,,,,,,,,,,,,,,,,,,,,,,,,,,,,,,,,,,,,,,,,,,,,,,,,,,,,,,,,,,,posc_poss,2,1,1,30,74.81235350004863,74.81951658299658,74.81951658299658,75.30823695799336,75.30823695799336,75.38626462500542,75.38626462500542,75.38626462500542,75.30823695799336,76.00510666600894,1,,,,,,,,701215,001,2025-08-14_13h31.56.552,tilt_staircase,2024.2.4,None,2025-08-14 13h33.50.153449 -0700
,,,,,,,,,,,,,,,,,,,,,,,,,,76.00943858304527,,,,,,,,,,,,,,,,,,,,,,,,,,,,,,,,,,,,,,,,,,,,,,,,,,,,,,,,,,,,,,,,,negc_poss,1,2,2,30,76.00528500007931,76.00943858304527,76.00943858304527,76.50285479100421,76.50285479100421,76.57598770805635,76.57598770805635,76.57598770805635,76.50954574998468,77.12632437504362,1,,,,,,,,701215,001,2025-08-14_13h31.56.552,tilt_staircase,2024.2.4,None,2025-08-14 13h33.50.153449 -0700
,,,,,,,,,,,,,,,,,,,,,,,,,,77.13620125001762,,,,,,,,,,,,,,,,,,,,,,,,,,,,,,,,,,,,,,,,,,,,,,,,,,,,,,,,,,,,,,,,,negc_negs,0.1,-1.35,-1.35,-30,77.12651617,77.13620125001762,77.13620125001762,77.61946583306417,77.61946583306417,77.69058591604698,77.69058591604698,77.70288200001232,77.62374375003856,78.27168766607065,0,,,,,,,,701215,001,2025-08-14_13h31.56.552,tilt_staircase,2024.2.4,None,2025-08-14 13h33.50.153449 -0700
,,,,,,,,,,,,,,,,,,,,,,,,,,78.27566179,,,,,,,,,,,,,,,,,,,,,,,,,,,,,,,,,,,,,,,,,,,,,,,,,,,,,,,,,,,,,,,,,posc_poss,1,0,0,30,78.27186412503943,78.27566179,78.27566179,78.76955625007395,78.76955625007395,78.84329891600646,78.84329891600646,78.84329891600646,78.77626129100099,79.60506612504832,1,,,,,,,,701215,001,2025-08-14_13h31.56.552,tilt_staircase,2024.2.4,None,2025-08-14 13h33.50.153449 -0700
,,,,,,,,,,,,,,,,,,,,,,,,,,79.60985779098701,,,,,,,,,,,,,,,,,,,,,,,,,,,,,,,,,,,,,,,,,,,,,,,,,,,,,,,,,,,,,,,,,negc_poss,0.5,1.5,1.5,30,79.60524162498768,79.60985779098701,79.60985779098701,80.10277958307415,80.10277958307415,80.17613241600338,80.17613241600338,80.17613241600338,80.10944958298933,80.73845462501049,1,,,,,,,,701215,001,2025-08-14_13h31.56.552,tilt_staircase,2024.2.4,None,2025-08-14 13h33.50.153449 -0700
,,,,,,,,,,,,,,,,,,,,,,,,,,80.74274966598023,,,,,,,,,,,,,,,,,,,,,,,,,,,,,,,,,,,,,,,,,,,,,,,,,,,,,,,,,,,,,,,,,negc_noss,0.5,-1,-1,,80.73863000003621,80.74274966598023,80.74274966598023,81.23622420802712,81.23622420802712,81.30936621,81.30936621,81.30936621,81.24262604105752,82.61216233298182,1,,,,,,,,701215,001,2025-08-14_13h31.56.552,tilt_staircase,2024.2.4,None,2025-08-14 13h33.50.153449 -0700
,,,,,,,,,,,,,,,,,,,,,,,,,,82.61950612498913,,,,,,,,,,,,,,,,,,,,,,,,,,,,,,,,,,,,,,,,,,,,,,,,,,,,,,,,,,,,,,,,,posc_noss,1,0,0,,82.61237991601229,82.61950612498913,82.61950612498913,83.11030570801813,83.11030570801813,83.18624004,83.18624004,83.18624004,83.11030570801813,83.84522791602649,1,,,,,,,,701215,001,2025-08-14_13h31.56.552,tilt_staircase,2024.2.4,None,2025-08-14 13h33.50.153449 -0700
,,,,,,,,,,,,,,,,,,,,,,,,,,83.85291037498973,,,,,,,,,,,,,,,,,,,,,,,,,,,,,,,,,,,,,,,,,,,,,,,,,,,,,,,,,,,,,,,,,posc_negs,0.5,-1.5,-1.5,-30,83.84540049999487,83.85291037498973,83.85291037498973,84.34206104103941,84.34206104103941,84.41948237502947,84.41948237502947,84.41948237502947,84.34206104103941,86.57212616608012,0,,,,,,,,701215,001,2025-08-14_13h31.56.552,tilt_staircase,2024.2.4,None,2025-08-14 13h33.50.153449 -0700
,,,,,,,,,,,,,,,,,,,,,,,,,,86.57674158306327,,,,,,,,,,,,,,,,,,,,,,,,,,,,,,,,,,,,,,,,,,,,,,,,,,,,,,,,,,,,,,,,,negc_poss,0.5,1,1,30,86.57246916601434,86.57674158306327,86.57674158306327,87.06956979108509,87.06956979108509,87.14279275003355,87.14279275003355,87.14279275003355,87.07614508306142,87.75979508308228,1,,,,,,,,701215,001,2025-08-14_13h31.56.552,tilt_staircase,2024.2.4,None,2025-08-14 13h33.50.153449 -0700
,,,,,,,,,,,,,,,,,,,,,,,,,,87.76948267,,,,,,,,,,,,,,,,,,,,,,,,,,,,,,,,,,,,,,,,,,,,,,,,,,,,,,,,,,,,,,,,,posc_poss,1,-1,-1,30,87.75997083308175,87.76948267,87.76948267,88.25299179099966,88.25299179099966,88.32393308298197,88.32393308298197,88.33623512508348,88.25784820807166,89.02172525005881,1,,,,,,,,701215,001,2025-08-14_13h31.56.552,tilt_staircase,2024.2.4,None,2025-08-14 13h33.50.153449 -0700
,,,,,,,,,,,,,,,,,,,,,,,,,,89.02528883307241,,,,,,,,,,,,,,,,,,,,,,,,,,,,,,,,,,,,,,,,,,,,,,,,,,,,,,,,,,,,,,,,,negc_noss,0.5,-1.5,-1.5,,89.02189967,89.02528883307241,89.02528883307241,89.51952487498056,89.51952487498056,89.59066995803732,89.59066995803732,89.59066995803732,89.51952487498056,90.32175666606054,0,,,,,,,,701215,001,2025-08-14_13h31.56.552,tilt_staircase,2024.2.4,None,2025-08-14 13h33.50.153449 -0700
,,,,,,,,,,,,,,,,,,,,,,,,,,90.32521012506913,,,,,,,,,,,,,,,,,,,,,,,,,,,,,,,,,,,,,,,,,,,,,,,,,,,,,,,,,,,,,,,,,posc_negs,0.5,-1,-1,-30,90.32194866600912,90.32521012506913,90.32521012506913,90.81946916598827,90.81946916598827,90.89056183304638,90.89056183304638,90.89056183304638,90.81946916598827,91.50508516607806,1,,,,,,,,701215,001,2025-08-14_13h31.56.552,tilt_staircase,2024.2.4,None,2025-08-14 13h33.50.153449 -0700
,,,,,,,,,,,,,,,,,,,,,,,,,,91.50930370797869,,,,,,,,,,,,,,,,,,,,,,,,,,,,,,,,,,,,,,,,,,,,,,,,,,,,,,,,,,,,,,,,,negc_negs,0.1,-1.25,-1.25,-30,91.50526441598777,91.50930370797869,91.50930370797869,92.00289912498556,92.00289912498556,92.07591141597368,92.07591141597368,92.07591141597368,92.00957433297299,92.59352712507825,1,,,,,,,,701215,001,2025-08-14_13h31.56.552,tilt_staircase,2024.2.4,None,2025-08-14 13h33.50.153449 -0700
,,,,,,,,,,,,,,,,,,,,,,,,,,92.6029625,,,,,,,,,,,,,,,,,,,,,,,,,,,,,,,,,,,,,,,,,,,,,,,,,,,,,,,,,,,,,,,,,posc_noss,1,-1,-1,,92.59370433306322,92.6029625,92.6029625,93.08617679099552,93.08617679099552,93.15747025003657,93.15747025003657,93.16944037505891,93.09078979108017,93.67867699998897,1,,,,,,,,701215,001,2025-08-14_13h31.56.552,tilt_staircase,2024.2.4,None,2025-08-14 13h33.50.153449 -0700
,,,,,,,,,,,,,,,,,,,,,,,,,,93.68608954106458,,,,,,,,,,,,,,,,,,,,,,,,,,,,,,,,,,,,,,,,,,,,,,,,,,,,,,,,,,,,,,,,,negc_negs,0.1,-1.35,-1.35,-30,93.67886350001208,93.68608954106458,93.68608954106458,94.17622800008394,94.17622800008394,94.25276975007728,94.25276975007728,94.25276975007728,94.17622800008394,94.80486074998043,1,,,,,,,,701215,001,2025-08-14_13h31.56.552,tilt_staircase,2024.2.4,None,2025-08-14 13h33.50.153449 -0700
,,,,,,,,,,,,,,,,,,,,,,,,,,94.80955416604411,,,,,,,,,,,,,,,,,,,,,,,,,,,,,,,,,,,,,,,,,,,,,,,,,,,,,,,,,,,,,,,,,negc_noss,0.25,-1.25,-1.25,,94.80502974998672,94.80955416604411,94.80955416604411,95.30287579097785,95.30287579097785,95.37632021,95.37632021,95.37632021,95.30956696,95.94531754101627,1,,,,,,,,701215,001,2025-08-14_13h31.56.552,tilt_staircase,2024.2.4,None,2025-08-14 13h33.50.153449 -0700
,,,,,,,,,,,,,,,,,,,,,,,,,,95.95293766597752,,,,,,,,,,,,,,,,,,,,,,,,,,,,,,,,,,,,,,,,,,,,,,,,,,,,,,,,,,,,,,,,,posc_poss,1,-2,-2,30,95.94548566604499,95.95293766597752,95.95293766597752,96.44278687506448,96.44278687506448,96.51955770805944,96.51955770805944,96.51955770805944,96.44278687506448,97.01221729104873,0,,,,,,,,701215,001,2025-08-14_13h31.56.552,tilt_staircase,2024.2.4,None,2025-08-14 13h33.50.153449 -0700
,,,,,,,,,,,,,,,,,,,,,,,,,,97.01949837501161,,,,,,,,,,,,,,,,,,,,,,,,,,,,,,,,,,,,,,,,,,,,,,,,,,,,,,,,,,,,,,,,,posc_noss,1,-2,-2,,97.01240079,97.01949837501161,97.01949837501161,97.50983520806767,97.50983520806767,97.58612471,97.58612471,97.58612471,97.50983520806767,98.05501145799644,0,,,,,,,,701215,001,2025-08-14_13h31.56.552,tilt_staircase,2024.2.4,None,2025-08-14 13h33.50.153449 -0700
,,,,,,,,,,,,,,,,,,,,,,,,,,98.05848574999254,,,,,,,,,,,,,,,,,,,,,,,,,,,,,,,,,,,,,,,,,,,,,,,,,,,,,,,,,,,,,,,,,negc_poss,0.5,0.5,0.5,30,98.05519029102288,98.05848574999254,98.05848574999254,98.55284312507138,98.55284312507138,98.62430692,98.62430692,98.62430692,98.55284312507138,99.14533691597171,1,,,,,,,,701215,001,2025-08-14_13h31.56.552,tilt_staircase,2024.2.4,None,2025-08-14 13h33.50.153449 -0700
,,,,,,,,,,,,,,,,,,,,,,,,,,99.15287725,,,,,,,,,,,,,,,,,,,,,,,,,,,,,,,,,,,,,,,,,,,,,,,,,,,,,,,,,,,,,,,,,posc_negs,0.25,-1.25,-1.25,-30,99.14550491597038,99.15287725,99.15287725,99.64316933299415,99.64316933299415,99.71948491607327,99.71948491607327,99.71948491607327,99.64316933299415,100.20529037504457,1,,,,,,,,701215,001,2025-08-14_13h31.56.552,tilt_staircase,2024.2.4,None,2025-08-14 13h33.50.153449 -0700
,,,,,,,,,,,,,,,,,,,,,,,,,,100.20891549997032,,,,,,,,,,,,,,,,,,,,,,,,,,,,,,,,,,,,,,,,,,,,,,,,,,,,,,,,,,,,,,,,,posc_negs,0.25,-1.5,-1.5,-30,100.20548441598658,100.20891549997032,100.20891549997032,100.70288062503096,100.70288062503096,100.7762284160126,100.7762284160126,100.7762284160126,100.70936616603285,101.2932659580838,1,,,,,,,,701215,001,2025-08-14_13h31.56.552,tilt_staircase,2024.2.4,None,2025-08-14 13h33.50.153449 -0700
,,,,,,,,,,,,,,,,,,,,,,,,,,101.30284020805266,,,,,,,,,,,,,,,,,,,,,,,,,,,,,,,,,,,,,,,,,,,,,,,,,,,,,,,,,,,,,,,,,negc_poss,0.5,0,0,30,101.2934386250563,101.30284020805266,101.30284020805266,101.78613937506452,101.78613937506452,101.85707862500567,101.85707862500567,101.86956116603687,101.79091058298945,102.43837287498172,1,,,,,,,,701215,001,2025-08-14_13h31.56.552,tilt_staircase,2024.2.4,None,2025-08-14 13h33.50.153449 -0700
,,,,,,,,,,,,,,,,,,,,,,,,,,102.44285691599362,,,,,,,,,,,,,,,,,,,,,,,,,,,,,,,,,,,,,,,,,,,,,,,,,,,,,,,,,,,,,,,,,negc_negs,0.1,-1.45,-1.45,-30,102.43855654099025,102.44285691599362,102.44285691599362,102.93601791607216,102.93601791607216,103.0094183330657,103.0094183330657,103.0094183330657,102.94273287500255,103.80513770808466,1,,,,,,,,701215,001,2025-08-14_13h31.56.552,tilt_staircase,2024.2.4,None,2025-08-14 13h33.50.153449 -0700
,,,,,,,,,,,,,,,,,,,,,,,,,,103.80985733307898,,,,,,,,,,,,,,,,,,,,,,,,,,,,,,,,,,,,,,,,,,,,,,,,,,,,,,,,,,,,,,,,,posc_poss,0.5,-1.5,-1.5,30,103.80532554106321,103.80985733307898,103.80985733307898,104.30276508303359,104.30276508303359,104.37699941603933,104.37699941603933,104.37699941603933,104.30929695803206,105.21125250007026,1,,,,,,,,701215,001,2025-08-14_13h31.56.552,tilt_staircase,2024.2.4,None,2025-08-14 13h33.50.153449 -0700
,,,,,,,,,,,,,,,,,,,,,,,,,,105.21945683297236,,,,,,,,,,,,,,,,,,,,,,,,,,,,,,,,,,,,,,,,,,,,,,,,,,,,,,,,,,,,,,,,,negc_noss,0.1,-1.35,-1.35,,105.21143170807045,105.21945683297236,105.21945683297236,105.70883433299605,105.70883433299605,105.78610374999698,105.78610374999698,105.78610374999698,105.70883433299605,106.33845341601409,1,,,,,,,,701215,001,2025-08-14_13h31.56.552,tilt_staircase,2024.2.4,None,2025-08-14 13h33.50.153449 -0700
,,,,,,,,,,,,,,,,,,,,,,,,,,106.34212012507487,,,,,,,,,,,,,,,,,,,,,,,,,,,,,,,,,,,,,,,,,,,,,,,,,,,,,,,,,,,,,,,,,posc_noss,0.5,-1.5,-1.5,,106.33864587498829,106.34212012507487,106.34212012507487,106.8361859159777,106.8361859159777,106.90961520804558,106.90961520804558,106.90961520804558,106.8417993329931,107.87789870798588,0,,,,,,,,701215,001,2025-08-14_13h31.56.552,tilt_staircase,2024.2.4,None,2025-08-14 13h33.50.153449 -0700
,,,,,,,,,,,,,,,,,,,,,,,,,,107.88618895807303,,,,,,,,,,,,,,,,,,,,,,,,,,,,,,,,,,,,,,,,,,,,,,,,,,,,,,,,,,,,,,,,,posc_negs,0.25,-1.75,-1.75,-30,107.87808683305047,107.88618895807303,107.88618895807303,108.37643620802555,108.37643620802555,108.45280812506098,108.45280812506098,108.45280812506098,108.37643620802555,109.02632433304098,1,,,,,,,,701215,001,2025-08-14_13h31.56.552,tilt_staircase,2024.2.4,None,2025-08-14 13h33.50.153449 -0700
,,,,,,,,,,,,,,,,,,,,,,,,,,109.03612549998797,,,,,,,,,,,,,,,,,,,,,,,,,,,,,,,,,,,,,,,,,,,,,,,,,,,,,,,,,,,,,,,,,negc_poss,0.5,-0.5,-0.5,30,109.02650024998002,109.03612549998797,109.03612549998797,109.51949004107155,109.51949004107155,109.59075612504967,109.59075612504967,109.60282825003378,109.52413779101335,111.69268191605806,0,,,,,,,,701215,001,2025-08-14_13h31.56.552,tilt_staircase,2024.2.4,None,2025-08-14 13h33.50.153449 -0700
,,,,,,,,,,,,,,,,,,,,,,,,,,111.70267245802097,,,,,,,,,,,,,,,,,,,,,,,,,,,,,,,,,,,,,,,,,,,,,,,,,,,,,,,,,,,,,,,,,negc_negs,0.1,-1.55,-1.55,-30,111.69286125001963,111.70267245802097,111.70267245802097,112.1861239579739,112.1861239579739,112.2573825,112.2573825,112.26930212497246,112.19074550003279,112.82640312507283,0,,,,,,,,701215,001,2025-08-14_13h31.56.552,tilt_staircase,2024.2.4,None,2025-08-14 13h33.50.153449 -0700
,,,,,,,,,,,,,,,,,,,,,,,,,,112.8361138330074,,,,,,,,,,,,,,,,,,,,,,,,,,,,,,,,,,,,,,,,,,,,,,,,,,,,,,,,,,,,,,,,,posc_poss,0.25,-1.75,-1.75,30,112.82657999999356,112.8361138330074,112.8361138330074,113.3194945830619,113.3194945830619,113.39049891603645,113.39049891603645,113.40285783307627,113.32421691599302,113.85486304108053,0,,,,,,,,701215,001,2025-08-14_13h31.56.552,tilt_staircase,2024.2.4,None,2025-08-14 13h33.50.153449 -0700
,,,,,,,,,,,,,,,,,,,,,,,,,,113.85843025008217,,,,,,,,,,,,,,,,,,,,,,,,,,,,,,,,,,,,,,,,,,,,,,,,,,,,,,,,,,,,,,,,,posc_noss,0.5,-1,-1,,113.85505970800295,113.85843025008217,113.85843025008217,114.35266383306589,114.35266383306589,114.42386108299252,114.42386108299252,114.42386108299252,114.35266383306589,114.97855220804922,0,,,,,,,,701215,001,2025-08-14_13h31.56.552,tilt_staircase,2024.2.4,None,2025-08-14 13h33.50.153449 -0700
,,,,,,,,,,,,,,,,,,,,,,,,,,114.98602695798036,,,,,,,,,,,,,,,,,,,,,,,,,,,,,,,,,,,,,,,,,,,,,,,,,,,,,,,,,,,,,,,,,negc_noss,0.1,-1.45,-1.45,,114.97873874998186,114.98602695798036,114.98602695798036,115.47613387508318,115.47613387508318,115.55279204098042,115.55279204098042,115.55279204098042,115.47613387508318,116.00500541599467,0,,,,,,,,701215,001,2025-08-14_13h31.56.552,tilt_staircase,2024.2.4,None,2025-08-14 13h33.50.153449 -0700
,,,,,,,,,,,,,,,,,,,,,,,,,,116.00914754101541,,,,,,,,,,,,,,,,,,,,,,,,,,,,,,,,,,,,,,,,,,,,,,,,,,,,,,,,,,,,,,,,,negc_poss,0.25,-0.25,-0.25,30,116.0051989160711,116.00914754101541,116.00914754101541,116.50286433298606,116.50286433298606,116.5759713749867,116.5759713749867,116.5759713749867,116.50935679103713,117.27921791607514,1,,,,,,,,701215,001,2025-08-14_13h31.56.552,tilt_staircase,2024.2.4,None,2025-08-14 13h33.50.153449 -0700
,,,,,,,,,,,,,,,,,,,,,,,,,,117.28623337508179,,,,,,,,,,,,,,,,,,,,,,,,,,,,,,,,,,,,,,,,,,,,,,,,,,,,,,,,,,,,,,,,,negc_noss,0.1,-1.35,-1.35,,117.27939383301418,117.28623337508179,117.28623337508179,117.77605437499005,117.77605437499005,117.8526965000201,117.8526965000201,117.8526965000201,117.77605437499005,119.0129384159809,0,,,,,,,,701215,001,2025-08-14_13h31.56.552,tilt_staircase,2024.2.4,None,2025-08-14 13h33.50.153449 -0700
,,,,,,,,,,,,,,,,,,,,,,,,,,119.0196129999822,,,,,,,,,,,,,,,,,,,,,,,,,,,,,,,,,,,,,,,,,,,,,,,,,,,,,,,,,,,,,,,,,negc_negs,0.1,-1.45,-1.45,-30,119.01320341601968,119.0196129999822,119.0196129999822,119.50843179097865,119.50843179097865,119.58621045807377,119.58621045807377,119.58621045807377,119.50843179097865,120.53849941608496,0,,,,,,,,701215,001,2025-08-14_13h31.56.552,tilt_staircase,2024.2.4,None,2025-08-14 13h33.50.153449 -0700
,,,,,,,,,,,,,,,,,,,,,,,,,,120.54292841604911,,,,,,,,,,,,,,,,,,,,,,,,,,,,,,,,,,,,,,,,,,,,,,,,,,,,,,,,,,,,,,,,,posc_poss,0.1,-1.65,-1.65,30,120.53870058304165,120.54292841604911,120.54292841604911,121.03601254103705,121.03601254103705,121.10961787507404,121.10961787507404,121.10961787507404,121.04282404098194,121.62664270808455,0,,,,,,,,701215,001,2025-08-14_13h31.56.552,tilt_staircase,2024.2.4,None,2025-08-14 13h33.50.153449 -0700
,,,,,,,,,,,,,,,,,,,,,,,,,,121.63619979098439,,,,,,,,,,,,,,,,,,,,,,,,,,,,,,,,,,,,,,,,,,,,,,,,,,,,,,,,,,,,,,,,,posc_noss,0.5,-0.5,-0.5,,121.62682825000957,121.63619979098439,121.63619979098439,122.11942500004079,122.11942500004079,122.19064229098149,122.19064229098149,122.20278679102194,122.12420025002211,124.31174295803066,1,,,,,,,,701215,001,2025-08-14_13h31.56.552,tilt_staircase,2024.2.4,None,2025-08-14 13h33.50.153449 -0700
,,,,,,,,,,,,,,,,,,,,,,,,,,124.31948208308313,,,,,,,,,,,,,,,,,,,,,,,,,,,,,,,,,,,,,,,,,,,,,,,,,,,,,,,,,,,,,,,,,posc_negs,0.25,-2,-2,-30,124.31191554106772,124.31948208308313,124.31948208308313,124.80961587501224,124.80961587501224,124.88603345805313,124.88603345805313,124.88603345805313,124.80961587501224,125.3786175410496,0,,,,,,,,701215,001,2025-08-14_13h31.56.552,tilt_staircase,2024.2.4,None,2025-08-14 13h33.50.153449 -0700
,,,,,,,,,,,,,,,,,,,,,,,,,,125.38618887506891,,,,,,,,,,,,,,,,,,,,,,,,,,,,,,,,,,,,,,,,,,,,,,,,,,,,,,,,,,,,,,,,,posc_negs,0.1,-1.9,-1.9,-30,125.37881062505767,125.38618887506891,125.38618887506891,125.87561312504113,125.87561312504113,125.95283687498886,125.95283687498886,125.95283687498886,125.87561312504113,126.50480133306701,0,,,,,,,,701215,001,2025-08-14_13h31.56.552,tilt_staircase,2024.2.4,None,2025-08-14 13h33.50.153449 -0700
,,,,,,,,,,,,,,,,,,,,,,,,,,126.50881949998438,,,,,,,,,,,,,,,,,,,,,,,,,,,,,,,,,,,,,,,,,,,,,,,,,,,,,,,,,,,,,,,,,negc_poss,0.1,-0.35,-0.35,30,126.50497887504753,126.50881949998438,126.50881949998438,127.00279250007588,127.00279250007588,127.07613262499217,127.07613262499217,127.07613262499217,127.00930745806545,129.3118342909729,1,,,,,,,,701215,001,2025-08-14_13h31.56.552,tilt_staircase,2024.2.4,None,2025-08-14 13h33.50.153449 -0700
,,,,,,,,,,,,,,,,,,,,,,,,,,129.31950195797253,,,,,,,,,,,,,,,,,,,,,,,,,,,,,,,,,,,,,,,,,,,,,,,,,,,,,,,,,,,,,,,,,negc_noss,0.1,-1.25,-1.25,,129.31202729104552,129.31950195797253,129.31950195797253,129.8097448750632,129.8097448750632,129.88597083301283,129.88597083301283,129.88597083301283,129.8097448750632,130.42186112503987,0,,,,,,,,701215,001,2025-08-14_13h31.56.552,tilt_staircase,2024.2.4,None,2025-08-14 13h33.50.153449 -0700
,,,,,,,,,,,,,,,,,,,,,,,,,,130.4254983330611,,,,,,,,,,,,,,,,,,,,,,,,,,,,,,,,,,,,,,,,,,,,,,,,,,,,,,,,,,,,,,,,,posc_poss,0.1,-1.55,-1.55,30,130.42207804101054,130.4254983330611,130.4254983330611,130.91935770807322,130.91935770807322,130.99029429105576,130.99029429105576,130.99029429105576,130.91935770807322,131.5048400000669,0,,,,,,,,701215,001,2025-08-14_13h31.56.552,tilt_staircase,2024.2.4,None,2025-08-14 13h33.50.153449 -0700
,,,,,,,,,,,,,,,,,,,,,,,,,,131.5099509,,,,,,,,,,,,,,,,,,,,,,,,,,,,,,,,,,,,,,,,,,,,,,,,,,,,,,,,,,,,,,,,,negc_negs,0.1,-1.35,-1.35,-30,131.50501591607463,131.5099509,131.5099509,132.0028097500326,132.0028097500326,132.0760995830642,132.0760995830642,132.0760995830642,132.00919283297844,132.7049843330169,0,,,,,,,,701215,001,2025-08-14_13h31.56.552,tilt_staircase,2024.2.4,None,2025-08-14 13h33.50.153449 -0700
,,,,,,,,,,,,,,,,,,,,,,,,,,132.7088044580305,,,,,,,,,,,,,,,,,,,,,,,,,,,,,,,,,,,,,,,,,,,,,,,,,,,,,,,,,,,,,,,,,posc_noss,0.25,-0.75,-0.75,,132.70517012500204,132.7088044580305,132.7088044580305,133.20275970804505,133.20275970804505,133.27525283303112,133.27525283303112,133.27525283303112,133.20873750001192,133.8050396250328,0,,,,,,,,701215,001,2025-08-14_13h31.56.552,tilt_staircase,2024.2.4,None,2025-08-14 13h33.50.153449 -0700
,,,,,,,,,,,,,,,,,,,,,,,,,,133.8093545830343,,,,,,,,,,,,,,,,,,,,,,,,,,,,,,,,,,,,,,,,,,,,,,,,,,,,,,,,,,,,,,,,,posc_poss,0.1,-1.45,-1.45,30,133.8052391660167,133.8093545830343,133.8093545830343,134.30280008306727,134.30280008306727,134.37541104108095,134.37541104108095,134.37541104108095,134.3095519579947,135.07149570807815,0,,,,,,,,701215,001,2025-08-14_13h31.56.552,tilt_staircase,2024.2.4,None,2025-08-14 13h33.50.153449 -0700
,,,,,,,,,,,,,,,,,,,,,,,,,,135.07605245802552,,,,,,,,,,,,,,,,,,,,,,,,,,,,,,,,,,,,,,,,,,,,,,,,,,,,,,,,,,,,,,,,,posc_negs,0.1,-1.8,-1.8,-30,135.07167620805558,135.07605245802552,135.07605245802552,135.5694999160478,135.5694999160478,135.64312050002627,135.64312050002627,135.64312050002627,135.5754144580569,137.12681395804975,0,,,,,,,,701215,001,2025-08-14_13h31.56.552,tilt_staircase,2024.2.4,None,2025-08-14 13h33.50.153449 -0700
,,,,,,,,,,,,,,,,,,,,,,,,,,137.13616387499496,,,,,,,,,,,,,,,,,,,,,,,,,,,,,,,,,,,,,,,,,,,,,,,,,,,,,,,,,,,,,,,,,negc_poss,0.1,-0.45,-0.45,30,137.12702775001526,137.13616387499496,137.13616387499496,137.61945487500634,137.61945487500634,137.6908028749749,137.6908028749749,137.7026804999914,137.62382700003218,138.6447351659881,0,,,,,,,,701215,001,2025-08-14_13h31.56.552,tilt_staircase,2024.2.4,None,2025-08-14 13h33.50.153449 -0700
,,,,,,,,,,,,,,,,,,,,,,,,,,138.6527996660443,,,,,,,,,,,,,,,,,,,,,,,,,,,,,,,,,,,,,,,,,,,,,,,,,,,,,,,,,,,,,,,,,negc_noss,0.1,-1.15,-1.15,,138.64491475000978,138.6527996660443,138.6527996660443,139.14291204104666,139.14291204104666,139.2193492910592,139.2193492910592,139.2193492910592,139.14291204104666,139.94524658308364,0,,,,,,,,701215,001,2025-08-14_13h31.56.552,tilt_staircase,2024.2.4,None,2025-08-14 13h33.50.153449 -0700
,,,,,,,,,,,,,,,,,,,,,,,,,,139.9528527080547,,,,,,,,,,,,,,,,,,,,,,,,,,,,,,,,,,,,,,,,,,,,,,,,,,,,,,,,,,,,,,,,,posc_noss,0.1,-0.65,-0.65,,139.9454268750269,139.9528527080547,139.9528527080547,140.44276845804416,140.44276845804416,140.51929870806634,140.51929870806634,140.51929870806634,140.44276845804416,141.27168350003194,0,,,,,,,,701215,001,2025-08-14_13h31.56.552,tilt_staircase,2024.2.4,None,2025-08-14 13h33.50.153449 -0700
,,,,,,,,,,,,,,,,,,,,,,,,,,141.27605333307292,,,,,,,,,,,,,,,,,,,,,,,,,,,,,,,,,,,,,,,,,,,,,,,,,,,,,,,,,,,,,,,,,negc_negs,0.1,-1.25,-1.25,-30,141.27187191601843,141.27605333307292,141.27605333307292,141.7693892910611,141.7693892910611,141.8431218750775,141.8431218750775,141.8431218750775,141.77609208307695,142.4115744580049,0,,,,,,,,701215,001,2025-08-14_13h31.56.552,tilt_staircase,2024.2.4,None,2025-08-14 13h33.50.153449 -0700
,,,,,,,,,,,,,,,,,,,,,,,,,,142.41936579102185,,,,,,,,,,,,,,,,,,,,,,,,,,,,,,,,,,,,,,,,,,,,,,,,,,,,,,,,,,,,,,,,,posc_poss,0.1,-1.35,-1.35,30,142.41176391602494,142.41936579102185,142.41936579102185,142.90847541601397,142.90847541601397,142.98601474997122,142.98601474997122,142.98601474997122,142.90847541601397,143.42654641601257,0,,,,,,,,701215,001,2025-08-14_13h31.56.552,tilt_staircase,2024.2.4,None,2025-08-14 13h33.50.153449 -0700
,,,,,,,,,,,,,,,,,,,,,,,,,,143.43598704098258,,,,,,,,,,,,,,,,,,,,,,,,,,,,,,,,,,,,,,,,,,,,,,,,,,,,,,,,,,,,,,,,,posc_noss,0.1,-0.55,-0.55,,143.42671570798848,143.43598704098258,143.43598704098258,143.91943041607738,143.91943041607738,143.99061979097314,143.99061979097314,144.0027824579738,143.92406454100274,144.93834954104386,0,,,,,,,,701215,001,2025-08-14_13h31.56.552,tilt_staircase,2024.2.4,None,2025-08-14 13h33.50.153449 -0700
,,,,,,,,,,,,,,,,,,,,,,,,,,144.94261845806614,,,,,,,,,,,,,,,,,,,,,,,,,,,,,,,,,,,,,,,,,,,,,,,,,,,,,,,,,,,,,,,,,negc_poss,0.1,-0.35,-0.35,30,144.93853291601408,144.94261845806614,144.94261845806614,145.43601954099722,145.43601954099722,145.5099278750131,145.5099278750131,145.5099278750131,145.44295200007036,146.32163637503982,0,,,,,,,,701215,001,2025-08-14_13h31.56.552,tilt_staircase,2024.2.4,None,2025-08-14 13h33.50.153449 -0700
,,,,,,,,,,,,,,,,,,,,,,,,,,146.3251941660419,,,,,,,,,,,,,,,,,,,,,,,,,,,,,,,,,,,,,,,,,,,,,,,,,,,,,,,,,,,,,,,,,negc_noss,0.1,-1.05,-1.05,,146.32182633306365,146.3251941660419,146.3251941660419,146.81934458308388,146.81934458308388,146.89027391606942,146.89027391606942,146.89027391606942,146.81934458308388,147.47178895806428,0,,,,,,,,701215,001,2025-08-14_13h31.56.552,tilt_staircase,2024.2.4,None,2025-08-14 13h33.50.153449 -0700
,,,,,,,,,,,,,,,,,,,,,,,,,,147.47558354097418,,,,,,,,,,,,,,,,,,,,,,,,,,,,,,,,,,,,,,,,,,,,,,,,,,,,,,,,,,,,,,,,,negc_negs,0.1,-1.15,-1.15,-30,147.47197070799302,147.47558354097418,147.47558354097418,147.9694283750141,147.9694283750141,148.04286133300047,148.04286133300047,148.04286133300047,147.9765574580524,148.61160929105245,0,,,,,,,,701215,001,2025-08-14_13h31.56.552,tilt_staircase,2024.2.4,None,2025-08-14 13h33.50.153449 -0700
,,,,,,,,,,,,,,,,,,,,,,,,,,148.6194692910649,,,,,,,,,,,,,,,,,,,,,,,,,,,,,,,,,,,,,,,,,,,,,,,,,,,,,,,,,,,,,,,,,posc_negs,0.1,-1.7,-1.7,-30,148.6117809159914,148.6194692910649,148.6194692910649,149.1086159159895,149.1086159159895,149.1860914999852,149.1860914999852,149.1860914999852,149.1086159159895,149.67166645801626,0,,,,,,,,701215,001,2025-08-14_13h31.56.552,tilt_staircase,2024.2.4,None,2025-08-14 13h33.50.153449 -0700
,,,,,,,,,,,,,,,,,,,,,,,,,,149.67630470800214,,,,,,,,,,,,,,,,,,,,,,,,,,,,,,,,,,,,,,,,,,,,,,,,,,,,,,,,,,,,,,,,,posc_poss,0.1,-1.25,-1.25,30,149.67185775004327,149.67630470800214,149.67630470800214,150.16936037503183,150.16936037503183,150.24268583301455,150.24268583301455,150.24268583301455,150.17608320806175,151.83814741601236,0,,,,,,,,701215,001,2025-08-14_13h31.56.552,tilt_staircase,2024.2.4,None,2025-08-14 13h33.50.153449 -0700
,,,,,,,,,,,,,,,,,,,,,,,,,,151.84246941597667,,,,,,,,,,,,,,,,,,,,,,,,,,,,,,,,,,,,,,,,,,,,,,,,,,,,,,,,,,,,,,,,,negc_negs,0.1,-1.05,-1.05,-30,151.83832654100843,151.84246941597667,151.84246941597667,152.3360886250157,152.3360886250157,152.40931208303664,152.40931208303664,152.40931208303664,152.3426939160563,153.25479145802092,0,,,,,,,,701215,001,2025-08-14_13h31.56.552,tilt_staircase,2024.2.4,None,2025-08-14 13h33.50.153449 -0700
,,,,,,,,,,,,,,,,,,,,,,,,,,153.25831270799972,,,,,,,,,,,,,,,,,,,,,,,,,,,,,,,,,,,,,,,,,,,,,,,,,,,,,,,,,,,,,,,,,negc_noss,0.1,-0.95,-0.95,,153.25496662501246,153.25831270799972,153.25831270799972,153.75276495807339,153.75276495807339,153.82347645808477,153.82347645808477,153.82347645808477,153.75276495807339,154.27827112504747,0,,,,,,,,701215,001,2025-08-14_13h31.56.552,tilt_staircase,2024.2.4,None,2025-08-14 13h33.50.153449 -0700
,,,,,,,,,,,,,,,,,,,,,,,,,,154.28594187507406,,,,,,,,,,,,,,,,,,,,,,,,,,,,,,,,,,,,,,,,,,,,,,,,,,,,,,,,,,,,,,,,,negc_poss,0.1,-0.25,-0.25,30,154.2784463330172,154.28594187507406,154.28594187507406,154.77622162504122,154.77622162504122,154.85270770802163,154.85270770802163,154.85270770802163,154.77622162504122,155.23811179108452,0,,,,,,,,701215,001,2025-08-14_13h31.56.552,tilt_staircase,2024.2.4,None,2025-08-14 13h33.50.153449 -0700
,,,,,,,,,,,,,,,,,,,,,,,,,,155.24224245804362,,,,,,,,,,,,,,,,,,,,,,,,,,,,,,,,,,,,,,,,,,,,,,,,,,,,,,,,,,,,,,,,,posc_noss,0.1,-0.45,-0.45,,155.23828595806845,155.24224245804362,155.24224245804362,155.73613312502857,155.73613312502857,155.80934533302207,155.80934533302207,155.80934533302207,155.7434540829854,156.2597925410373,0,,,,,,,,701215,001,2025-08-14_13h31.56.552,tilt_staircase,2024.2.4,None,2025-08-14 13h33.50.153449 -0700
,,,,,,,,,,,,,,,,,,,,,,,,,,156.26944904099219,,,,,,,,,,,,,,,,,,,,,,,,,,,,,,,,,,,,,,,,,,,,,,,,,,,,,,,,,,,,,,,,,posc_negs,0.1,-1.6,-1.6,-30,156.25996079097968,156.26944904099219,156.26944904099219,156.75272354099434,156.75272354099434,156.82365508307703,156.82365508307703,156.83608637505677,156.7571058330359,157.2385332500562,0,,,,,,,,701215,001,2025-08-14_13h31.56.552,tilt_staircase,2024.2.4,None,2025-08-14 13h33.50.153449 -0700
,,,,,,,,,,,,,,,,,,,,,,,,,,157.2431471659802,,,,,,,,,,,,,,,,,,,,,,,,,,,,,,,,,,,,,,,,,,,,,,,,,,,,,,,,,,,,,,,,,posc_poss,0.1,-1.15,-1.15,30,157.23874375002924,157.2431471659802,157.2431471659802,157.7359678,157.7359678,157.80873379099648,157.80873379099648,157.80873379099648,157.7425822080113,158.25479229097255,0,,,,,,,,701215,001,2025-08-14_13h31.56.552,tilt_staircase,2024.2.4,None,2025-08-14 13h33.50.153449 -0700
,,,,,,,,,,,,,,,,,,,,,,,,,,158.25742437504232,,,,,,,,,,,,,,,,,,,,,,,,,,,,,,,,,,,,,,,,,,,,,,,,,,,,,,,,,,,,,,,,,negc_noss,0.1,-0.85,-0.85,,158.2550185410073,158.25742437504232,158.25742437504232,158.75275408301968,158.75275408301968,158.8238516249694,158.8238516249694,158.8238516249694,158.75275408301968,159.33828695805278,0,,,,,,,,701215,001,2025-08-14_13h31.56.552,tilt_staircase,2024.2.4,None,2025-08-14 13h33.50.153449 -0700
,,,,,,,,,,,,,,,,,,,,,,,,,,159.34281112498138,,,,,,,,,,,,,,,,,,,,,,,,,,,,,,,,,,,,,,,,,,,,,,,,,,,,,,,,,,,,,,,,,posc_negs,0.1,-1.5,-1.5,-30,159.33845954097342,159.34281112498138,159.34281112498138,159.83601237507537,159.83601237507537,159.90881108306348,159.90881108306348,159.90881108306348,159.8426540410146,160.32150516600814,0,,,,,,,,701215,001,2025-08-14_13h31.56.552,tilt_staircase,2024.2.4,None,2025-08-14 13h33.50.153449 -0700
,,,,,,,,,,,,,,,,,,,,,,,,,,160.32500829105265,,,,,,,,,,,,,,,,,,,,,,,,,,,,,,,,,,,,,,,,,,,,,,,,,,,,,,,,,,,,,,,,,negc_poss,0.1,-0.15,-0.15,30,160.3216803750256,160.32500829105265,160.32500829105265,160.81934112508316,160.81934112508316,160.89072108303662,160.89072108303662,160.89072108303662,160.81934112508316,161.27876954106614,0,,,,,,,,701215,001,2025-08-14_13h31.56.552,tilt_staircase,2024.2.4,None,2025-08-14 13h33.50.153449 -0700
,,,,,,,,,,,,,,,,,,,,,,,,,,161.28610895806924,,,,,,,,,,,,,,,,,,,,,,,,,,,,,,,,,,,,,,,,,,,,,,,,,,,,,,,,,,,,,,,,,posc_noss,0.1,-0.35,-0.35,,161.2789455410093,161.28610895806924,161.28610895806924,161.7759473749902,161.7759473749902,161.8527654580539,161.8527654580539,161.8527654580539,161.7759473749902,162.2451094579883,0,,,,,,,,701215,001,2025-08-14_13h31.56.552,tilt_staircase,2024.2.4,None,2025-08-14 13h33.50.153449 -0700
,,,,,,,,,,,,,,,,,,,,,,,,,,162.2527785410639,,,,,,,,,,,,,,,,,,,,,,,,,,,,,,,,,,,,,,,,,,,,,,,,,,,,,,,,,,,,,,,,,negc_negs,0.1,-0.95,-0.95,-30,162.24528566608205,162.2527785410639,162.2527785410639,162.74227108305786,162.74227108305786,162.81937762501184,162.81937762501184,162.81937762501184,162.74227108305786,163.25506574998144,0,,,,,,,,701215,001,2025-08-14_13h31.56.552,tilt_staircase,2024.2.4,None,2025-08-14 13h33.50.153449 -0700
,,,,,,,,,,,,,,,,,,,,,,,,,,163.2586993330624,,,,,,,,,,,,,,,,,,,,,,,,,,,,,,,,,,,,,,,,,,,,,,,,,,,,,,,,,,,,,,,,,negc_negs,0.1,-0.85,-0.85,-30,163.2552533330163,163.2586993330624,163.2586993330624,163.75271891604643,163.75271891604643,163.82372170803137,163.82372170803137,163.82372170803137,163.75271891604643,164.35962125007063,0,,,,,,,,701215,001,2025-08-14_13h31.56.552,tilt_staircase,2024.2.4,None,2025-08-14 13h33.50.153449 -0700
,,,,,,,,,,,,,,,,,,,,,,,,,,164.36943525006063,,,,,,,,,,,,,,,,,,,,,,,,,,,,,,,,,,,,,,,,,,,,,,,,,,,,,,,,,,,,,,,,,posc_negs,0.1,-1.4,-1.4,-30,164.35980145807844,164.36943525006063,164.36943525006063,164.85271533299237,164.85271533299237,164.9240612910362,164.9240612910362,164.9360496250447,164.85734795802273,165.33822958299424,0,,,,,,,,701215,001,2025-08-14_13h31.56.552,tilt_staircase,2024.2.4,None,2025-08-14 13h33.50.153449 -0700
,,,,,,,,,,,,,,,,,,,,,,,,,,165.3418627079809,,,,,,,,,,,,,,,,,,,,,,,,,,,,,,,,,,,,,,,,,,,,,,,,,,,,,,,,,,,,,,,,,negc_poss,0.1,-0.05,-0.05,30,165.33841341605876,165.3418627079809,165.3418627079809,165.83592762507033,165.83592762507033,165.90929616603535,165.90929616603535,165.90929616603535,165.84265358303674,166.2452146250289,0,,,,,,,,701215,001,2025-08-14_13h31.56.552,tilt_staircase,2024.2.4,None,2025-08-14 13h33.50.153449 -0700
,,,,,,,,,,,,,,,,,,,,,,,,,,166.25275187497027,,,,,,,,,,,,,,,,,,,,,,,,,,,,,,,,,,,,,,,,,,,,,,,,,,,,,,,,,,,,,,,,,negc_noss,0.1,-0.75,-0.75,,166.2453934160294,166.25275187497027,166.25275187497027,166.74271062505431,166.74271062505431,166.81932183296885,166.81932183296885,166.81932183296885,166.74271062505431,167.30473275005352,0,,,,,,,,701215,001,2025-08-14_13h31.56.552,tilt_staircase,2024.2.4,None,2025-08-14 13h33.50.153449 -0700
,,,,,,,,,,,,,,,,,,,,,,,,,,167.30868766608182,,,,,,,,,,,,,,,,,,,,,,,,,,,,,,,,,,,,,,,,,,,,,,,,,,,,,,,,,,,,,,,,,posc_poss,0.1,-1.05,-1.05,30,167.30490762507543,167.30868766608182,167.30868766608182,167.80273562506773,167.80273562506773,167.8760178750381,167.8760178750381,167.8760178750381,167.80922266608104,168.32168929104228,0,,,,,,,,701215,001,2025-08-14_13h31.56.552,tilt_staircase,2024.2.4,None,2025-08-14 13h33.50.153449 -0700
,,,,,,,,,,,,,,,,,,,,,,,,,,168.32527991605457,,,,,,,,,,,,,,,,,,,,,,,,,,,,,,,,,,,,,,,,,,,,,,,,,,,,,,,,,,,,,,,,,posc_noss,0.1,-0.25,-0.25,,168.32186700007878,168.32527991605457,168.32527991605457,168.81938254099805,168.81938254099805,168.8905960409902,168.8905960409902,168.8905960409902,168.81938254099805,169.30479695799295,0,,,,,,,,701215,001,2025-08-14_13h31.56.552,tilt_staircase,2024.2.4,None,2025-08-14 13h33.50.153449 -0700
,,,,,,,,,,,,,,,,,,,,,,,,,,169.30921270803083,,,,,,,,,,,,,,,,,,,,,,,,,,,,,,,,,,,,,,,,,,,,,,,,,,,,,,,,,,,,,,,,,posc_noss,0.1,-0.15,-0.15,,169.30498625000473,169.30921270803083,169.30921270803083,169.80268012499437,169.80268012499437,169.87622008298058,169.87622008298058,169.87622008298058,169.8093250830425,170.64582625008188,0,,,,,,,,701215,001,2025-08-14_13h31.56.552,tilt_staircase,2024.2.4,None,2025-08-14 13h33.50.153449 -0700
,,,,,,,,,,,,,,,,,,,,,,,,,,170.65277950000018,,,,,,,,,,,,,,,,,,,,,,,,,,,,,,,,,,,,,,,,,,,,,,,,,,,,,,,,,,,,,,,,,negc_noss,0.1,-0.65,-0.65,,170.64599966607057,170.65277950000018,170.65277950000018,171.14318791602273,171.14318791602273,171.21934512502048,171.21934512502048,171.21934512502048,171.14318791602273,171.84554100001696,0,,,,,,,,701215,001,2025-08-14_13h31.56.552,tilt_staircase,2024.2.4,None,2025-08-14 13h33.50.153449 -0700
,,,,,,,,,,,,,,,,,,,,,,,,,,171.85276699997485,,,,,,,,,,,,,,,,,,,,,,,,,,,,,,,,,,,,,,,,,,,,,,,,,,,,,,,,,,,,,,,,,posc_negs,0.1,-1.3,-1.3,-30,171.84571387502365,171.85276699997485,171.85276699997485,172.34273254103027,172.34273254103027,172.41927529103123,172.41927529103123,172.41927529103123,172.34273254103027,172.97156741598155,0,,,,,,,,701215,001,2025-08-14_13h31.56.552,tilt_staircase,2024.2.4,None,2025-08-14 13h33.50.153449 -0700
,,,,,,,,,,,,,,,,,,,,,,,,,,172.97664916608483,,,,,,,,,,,,,,,,,,,,,,,,,,,,,,,,,,,,,,,,,,,,,,,,,,,,,,,,,,,,,,,,,negc_negs,0.1,-0.75,-0.75,-30,172.97174516599625,172.97664916608483,172.97664916608483,173.46929545805324,173.46929545805324,173.54220537503716,173.54220537503716,173.54220537503716,173.47600170806982,174.0382987500634,0,,,,,,,,701215,001,2025-08-14_13h31.56.552,tilt_staircase,2024.2.4,None,2025-08-14 13h33.50.153449 -0700
,,,,,,,,,,,,,,,,,,,,,,,,,,174.04254204104654,,,,,,,,,,,,,,,,,,,,,,,,,,,,,,,,,,,,,,,,,,,,,,,,,,,,,,,,,,,,,,,,,posc_poss,0.1,-0.95,-0.95,30,174.03848162502982,174.04254204104654,174.04254204104654,174.53598395804875,174.53598395804875,174.60879708302673,174.60879708302673,174.60879708302673,174.5432304580463,175.2449767080834,0,,,,,,,,701215,001,2025-08-14_13h31.56.552,tilt_staircase,2024.2.4,None,2025-08-14 13h33.50.153449 -0700
,,,,,,,,,,,,,,,,,,,,,,,,,,175.25262829102576,,,,,,,,,,,,,,,,,,,,,,,,,,,,,,,,,,,,,,,,,,,,,,,,,,,,,,,,,,,,,,,,,negc_poss,0.1,0.050000000000000044,0.050000000000000044,30,175.24514975002967,175.25262829102576,175.25262829102576,175.74274629098363,175.74274629098363,175.81936995801516,175.81936995801516,175.81936995801516,175.74274629098363,177.27150054101367,1,,,,,,,,701215,001,2025-08-14_13h31.56.552,tilt_staircase,2024.2.4,None,2025-08-14 13h33.50.153449 -0700
,,,,,,,,,,,,,,,,,,,,,,,,,,177.27529324998613,,,,,,,,,,,,,,,,,,,,,,,,,,,,,,,,,,,,,,,,,,,,,,,,,,,,,,,,,,,,,,,,,negc_poss,0.1,-0.05,-0.05,30,177.27169800002594,177.27529324998613,177.27529324998613,177.7693887500791,177.7693887500791,177.8426800830057,177.8426800830057,177.8426800830057,177.7760704579996,179.0269925830653,1,,,,,,,,701215,001,2025-08-14_13h31.56.552,tilt_staircase,2024.2.4,None,2025-08-14 13h33.50.153449 -0700
,,,,,,,,,,,,,,,,,,,,,,,,,,179.03594291605987,,,,,,,,,,,,,,,,,,,,,,,,,,,,,,,,,,,,,,,,,,,,,,,,,,,,,,,,,,,,,,,,,posc_noss,0.1,-0.05,-0.05,,179.0271783330245,179.03594291605987,179.03594291605987,179.5193867,179.5193867,179.59087320801336,179.59087320801336,179.60277316602878,179.52408295799978,181.02621908299625,1,,,,,,,,701215,001,2025-08-14_13h31.56.552,tilt_staircase,2024.2.4,None,2025-08-14 13h33.50.153449 -0700
,,,,,,,,,,,,,,,,,,,,,,,,,,181.03598283301108,,,,,,,,,,,,,,,,,,,,,,,,,,,,,,,,,,,,,,,,,,,,,,,,,,,,,,,,,,,,,,,,,posc_poss,0.1,-0.85,-0.85,30,181.0264010410756,181.03598283301108,181.03598283301108,181.51936887507327,181.51936887507327,181.59065700008068,181.59065700008068,181.6026594999712,181.52398612501565,182.07161762507167,0,,,,,,,,701215,001,2025-08-14_13h31.56.552,tilt_staircase,2024.2.4,None,2025-08-14 13h33.50.153449 -0700
,,,,,,,,,,,,,,,,,,,,,,,,,,182.07551658304874,,,,,,,,,,,,,,,,,,,,,,,,,,,,,,,,,,,,,,,,,,,,,,,,,,,,,,,,,,,,,,,,,negc_negs,0.1,-0.65,-0.65,-30,182.0717834159732,182.07551658304874,182.07551658304874,182.56934333301615,182.56934333301615,182.64293783297762,182.64293783297762,182.64293783297762,182.57601212500595,183.15481774997897,0,,,,,,,,701215,001,2025-08-14_13h31.56.552,tilt_staircase,2024.2.4,None,2025-08-14 13h33.50.153449 -0700
,,,,,,,,,,,,,,,,,,,,,,,,,,183.15752158302348,,,,,,,,,,,,,,,,,,,,,,,,,,,,,,,,,,,,,,,,,,,,,,,,,,,,,,,,,,,,,,,,,posc_negs,0.1,-1.2,-1.2,-30,183.15498983301222,183.15752158302348,183.15752158302348,183.65257487504277,183.65257487504277,183.72412837506272,183.72412837506272,183.72412837506272,183.65257487504277,184.15975325007457,0,,,,,,,,701215,001,2025-08-14_13h31.56.552,tilt_staircase,2024.2.4,None,2025-08-14 13h33.50.153449 -0700
,,,,,,,,,,,,,,,,,,,,,,,,,,184.16936699999496,,,,,,,,,,,,,,,,,,,,,,,,,,,,,,,,,,,,,,,,,,,,,,,,,,,,,,,,,,,,,,,,,negc_noss,0.1,-0.55,-0.55,,184.1599338,184.16936699999496,184.16936699999496,184.65267033304553,184.65267033304553,184.72375045798253,184.72375045798253,184.73593941598665,184.6574272500584,185.2715564579703,0,,,,,,,,701215,001,2025-08-14_13h31.56.552,tilt_staircase,2024.2.4,None,2025-08-14 13h33.50.153449 -0700
,,,,,,,,,,,,,,,,,,,,,,,,,,185.2760054579703,,,,,,,,,,,,,,,,,,,,,,,,,,,,,,,,,,,,,,,,,,,,,,,,,,,,,,,,,,,,,,,,,posc_noss,0.1,-0.15,-0.15,,185.27173866599333,185.2760054579703,185.2760054579703,185.76933350006584,185.76933350006584,185.84171304106712,185.84171304106712,185.84171304106712,185.7759432500461,186.67152641597204,0,,,,,,,,701215,001,2025-08-14_13h31.56.552,tilt_staircase,2024.2.4,None,2025-08-14 13h33.50.153449 -0700
,,,,,,,,,,,,,,,,,,,,,,,,,,186.6757089580642,,,,,,,,,,,,,,,,,,,,,,,,,,,,,,,,,,,,,,,,,,,,,,,,,,,,,,,,,,,,,,,,,negc_poss,0.1,-0.15,-0.15,30,186.67170579102822,186.6757089580642,186.6757089580642,187.1692982079694,187.1692982079694,187.24252420803532,187.24252420803532,187.24252420803532,187.17649800004438,190.2548255000729,1,,,,,,,,701215,001,2025-08-14_13h31.56.552,tilt_staircase,2024.2.4,None,2025-08-14 13h33.50.153449 -0700
,,,,,,,,,,,,,,,,,,,,,,,,,,190.25840716599487,,,,,,,,,,,,,,,,,,,,,,,,,,,,,,,,,,,,,,,,,,,,,,,,,,,,,,,,,,,,,,,,,posc_poss,0.1,-0.75,-0.75,30,190.25499908300117,190.25840716599487,190.25840716599487,190.75271345803048,190.75271345803048,190.82403750007506,190.82403750007506,190.82403750007506,190.75271345803048,191.3547867910238,0,,,,,,,,701215,001,2025-08-14_13h31.56.552,tilt_staircase,2024.2.4,None,2025-08-14 13h33.50.153449 -0700
,,,,,,,,,,,,,,,,,,,,,,,,,,191.35825612500776,,,,,,,,,,,,,,,,,,,,,,,,,,,,,,,,,,,,,,,,,,,,,,,,,,,,,,,,,,,,,,,,,negc_negs,0.1,-0.55,-0.55,-30,191.35496266605332,191.35825612500776,191.35825612500776,191.8525942909764,191.8525942909764,191.9234452500241,191.9234452500241,191.9234452500241,191.8525942909764,192.6715944580501,0,,,,,,,,701215,001,2025-08-14_13h31.56.552,tilt_staircase,2024.2.4,None,2025-08-14 13h33.50.153449 -0700
,,,,,,,,,,,,,,,,,,,,,,,,,,192.67602295801044,,,,,,,,,,,,,,,,,,,,,,,,,,,,,,,,,,,,,,,,,,,,,,,,,,,,,,,,,,,,,,,,,negc_noss,0.1,-0.45,-0.45,,192.6717787500238,192.67602295801044,192.67602295801044,193.16921383305453,193.16921383305453,193.24266912497114,193.24266912497114,193.24266912497114,193.17573395802174,195.94945533305872,0,,,,,,,,701215,001,2025-08-14_13h31.56.552,tilt_staircase,2024.2.4,None,2025-08-14 13h33.50.153449 -0700
,,,,,,,,,,,,,,,,,,,,,,,,,,195.9533265,,,,,,,,,,,,,,,,,,,,,,,,,,,,,,,,,,,,,,,,,,,,,,,,,,,,,,,,,,,,,,,,,posc_negs,0.1,-1.1,-1.1,-30,195.94964033307042,195.9533265,195.9533265,196.44280766602606,196.44280766602606,196.51925374998245,196.51925374998245,196.5239830830833,196.44280766602606,197.15490137506276,0,,,,,,,,701215,001,2025-08-14_13h31.56.552,tilt_staircase,2024.2.4,None,2025-08-14 13h33.50.153449 -0700
,,,,,,,,,,,,,,,,,,,,,,,,,,197.15843304106966,,,,,,,,,,,,,,,,,,,,,,,,,,,,,,,,,,,,,,,,,,,,,,,,,,,,,,,,,,,,,,,,,posc_negs,0.1,-1,-1,-30,197.1551051250426,197.15843304106966,197.15843304106966,197.6525370000163,197.6525370000163,197.72369295801036,197.72369295801036,197.72369295801036,197.6525370000163,199.2451936249854,0,,,,,,,,701215,001,2025-08-14_13h31.56.552,tilt_staircase,2024.2.4,None,2025-08-14 13h33.50.153449 -0700
,,,,,,,,,,,,,,,,,,,,,,,,,,199.25266529107466,,,,,,,,,,,,,,,,,,,,,,,,,,,,,,,,,,,,,,,,,,,,,,,,,,,,,,,,,,,,,,,,,negc_noss,0.1,-0.35,-0.35,,199.24538162501995,199.25266529107466,199.25266529107466,199.74264012498315,199.74264012498315,199.81934429099783,199.81934429099783,199.81934429099783,199.74264012498315,200.33820979099255,0,,,,,,,,701215,001,2025-08-14_13h31.56.552,tilt_staircase,2024.2.4,None,2025-08-14 13h33.50.153449 -0700
,,,,,,,,,,,,,,,,,,,,,,,,,,200.3431831659982,,,,,,,,,,,,,,,,,,,,,,,,,,,,,,,,,,,,,,,,,,,,,,,,,,,,,,,,,,,,,,,,,posc_poss,0.1,-0.65,-0.65,30,200.33838729106355,200.3431831659982,200.3431831659982,200.83599050005432,200.83599050005432,200.9093973330455,200.9093973330455,200.9093973330455,200.84258983307518,201.85931508301292,0,,,,,,,,701215,001,2025-08-14_13h31.56.552,tilt_staircase,2024.2.4,None,2025-08-14 13h33.50.153449 -0700
,,,,,,,,,,,,,,,,,,,,,,,,,,201.86930808296893,,,,,,,,,,,,,,,,,,,,,,,,,,,,,,,,,,,,,,,,,,,,,,,,,,,,,,,,,,,,,,,,,posc_noss,0.1,-0.05,-0.05,,201.85948066599667,201.86930808296893,201.86930808296893,202.35259412508458,202.35259412508458,202.42392354097683,202.42392354097683,202.43598716601264,202.35718662501313,203.20491091604345,0,,,,,,,,701215,001,2025-08-14_13h31.56.552,tilt_staircase,2024.2.4,None,2025-08-14 13h33.50.153449 -0700
,,,,,,,,,,,,,,,,,,,,,,,,,,203.2093844159972,,,,,,,,,,,,,,,,,,,,,,,,,,,,,,,,,,,,,,,,,,,,,,,,,,,,,,,,,,,,,,,,,negc_poss,0.1,-0.25,-0.25,30,203.20509566599503,203.2093844159972,203.2093844159972,203.70253816607874,203.70253816607874,203.77578141598497,203.77578141598497,203.77578141598497,203.70897420798428,204.32152500003576,0,,,,,,,,701215,001,2025-08-14_13h31.56.552,tilt_staircase,2024.2.4,None,2025-08-14 13h33.50.153449 -0700
,,,,,,,,,,,,,,,,,,,,,,,,,,204.32417795807123,,,,,,,,,,,,,,,,,,,,,,,,,,,,,,,,,,,,,,,,,,,,,,,,,,,,,,,,,,,,,,,,,negc_negs,0.1,-0.45,-0.45,-30,204.32172883301973,204.32417795807123,204.32417795807123,204.8192772080656,204.8192772080656,204.89058458304498,204.89058458304498,204.89058458304498,204.8192772080656,208.2119230000535,0,,,,,,,,701215,001,2025-08-14_13h31.56.552,tilt_staircase,2024.2.4,None,2025-08-14 13h33.50.153449 -0700
,,,,,,,,,,,,,,,,,,,,,,,,,,208.2193198329769,,,,,,,,,,,,,,,,,,,,,,,,,,,,,,,,,,,,,,,,,,,,,,,,,,,,,,,,,,,,,,,,,negc_negs,0.1,-0.35,-0.35,-30,208.21210666606203,208.2193198329769,208.2193198329769,208.70854966598563,208.70854966598563,208.7858666,208.7858666,208.7858666,208.70854966598563,209.53809966600966,0,,,,,,,,701215,001,2025-08-14_13h31.56.552,tilt_staircase,2024.2.4,None,2025-08-14 13h33.50.153449 -0700
,,,,,,,,,,,,,,,,,,,,,,,,,,209.5429752910277,,,,,,,,,,,,,,,,,,,,,,,,,,,,,,,,,,,,,,,,,,,,,,,,,,,,,,,,,,,,,,,,,posc_noss,0.1,0.049999999999999906,0.049999999999999906,,209.53827400004957,209.5429752910277,209.5429752910277,210.03600712504704,210.03600712504704,210.10943395807408,210.10943395807408,210.10943395807408,210.04248612502124,211.11179495800752,0,,,,,,,,701215,001,2025-08-14_13h31.56.552,tilt_staircase,2024.2.4,None,2025-08-14 13h33.50.153449 -0700
,,,,,,,,,,,,,,,,,,,,,,,,,,211.11919700005092,,,,,,,,,,,,,,,,,,,,,,,,,,,,,,,,,,,,,,,,,,,,,,,,,,,,,,,,,,,,,,,,,posc_negs,0.1,-0.9,-0.9,-30,211.11211708304472,211.11919700005092,211.11919700005092,211.60937987500802,211.60937987500802,211.68599658308085,211.68599658308085,211.68599658308085,211.60937987500802,212.2382070000749,0,,,,,,,,701215,001,2025-08-14_13h31.56.552,tilt_staircase,2024.2.4,None,2025-08-14 13h33.50.153449 -0700
,,,,,,,,,,,,,,,,,,,,,,,,,,212.2427210410824,,,,,,,,,,,,,,,,,,,,,,,,,,,,,,,,,,,,,,,,,,,,,,,,,,,,,,,,,,,,,,,,,posc_poss,0.1,-0.55,-0.55,30,212.23838629107922,212.2427210410824,212.2427210410824,212.7360350410454,212.7360350410454,212.80903341597877,212.80903341597877,212.80903341597877,212.74175200005993,213.52638012508396,0,,,,,,,,701215,001,2025-08-14_13h31.56.552,tilt_staircase,2024.2.4,None,2025-08-14 13h33.50.153449 -0700
,,,,,,,,,,,,,,,,,,,,,,,,,,213.53587416606024,,,,,,,,,,,,,,,,,,,,,,,,,,,,,,,,,,,,,,,,,,,,,,,,,,,,,,,,,,,,,,,,,negc_noss,0.1,-0.25,-0.25,,213.5265575000085,213.53587416606024,213.53587416606024,214.0193089999957,214.0193089999957,214.09054058301263,214.09054058301263,214.1026698750211,214.02425745804794,216.6457124,0,,,,,,,,701215,001,2025-08-14_13h31.56.552,tilt_staircase,2024.2.4,None,2025-08-14 13h33.50.153449 -0700
,,,,,,,,,,,,,,,,,,,,,,,,,,216.65260220807977,,,,,,,,,,,,,,,,,,,,,,,,,,,,,,,,,,,,,,,,,,,,,,,,,,,,,,,,,,,,,,,,,negc_poss,0.1,-0.15,-0.15,30,216.64590433298144,216.65260220807977,216.65260220807977,217.14275237498805,217.14275237498805,217.21926191600505,217.21926191600505,217.21926191600505,217.14275237498805,217.77828850003425,0,,,,,,,,701215,001,2025-08-14_13h31.56.552,tilt_staircase,2024.2.4,None,2025-08-14 13h33.50.153449 -0700
,,,,,,,,,,,,,,,,,,,,,,,,,,217.78590566606726,,,,,,,,,,,,,,,,,,,,,,,,,,,,,,,,,,,,,,,,,,,,,,,,,,,,,,,,,,,,,,,,,posc_poss,0.1,-0.45,-0.45,30,217.77848391607404,217.78590566606726,217.78590566606726,218.27551050006878,218.27551050006878,218.35254762507975,218.35254762507975,218.35254762507975,218.27551050006878,218.81170537497383,0,,,,,,,,701215,001,2025-08-14_13h31.56.552,tilt_staircase,2024.2.4,None,2025-08-14 13h33.50.153449 -0700
,,,,,,,,,,,,,,,,,,,,,,,,,,218.81930070801172,,,,,,,,,,,,,,,,,,,,,,,,,,,,,,,,,,,,,,,,,,,,,,,,,,,,,,,,,,,,,,,,,posc_negs,0.1,-0.8,-0.8,-30,218.8118762500817,218.81930070801172,218.81930070801172,219.30905754107516,219.30905754107516,219.38596054108348,219.38596054108348,219.38596054108348,219.30905754107516,219.8443284580717,0,,,,,,,,701215,001,2025-08-14_13h31.56.552,tilt_staircase,2024.2.4,None,2025-08-14 13h33.50.153449 -0700
,,,,,,,,,,,,,,,,,,,,,,,,,,219.8526362910634,,,,,,,,,,,,,,,,,,,,,,,,,,,,,,,,,,,,,,,,,,,,,,,,,,,,,,,,,,,,,,,,,negc_noss,0.1,-0.15,-0.15,,219.84450754104182,219.8526362910634,219.8526362910634,220.3426871,220.3426871,220.41914216603618,220.41914216603618,220.41914216603618,220.3426871,221.03805016598199,0,,,,,,,,701215,001,2025-08-14_13h31.56.552,tilt_staircase,2024.2.4,None,2025-08-14 13h33.50.153449 -0700
,,,,,,,,,,,,,,,,,,,,,,,,,,221.04320583306253,,,,,,,,,,,,,,,,,,,,,,,,,,,,,,,,,,,,,,,,,,,,,,,,,,,,,,,,,,,,,,,,,posc_poss,0.1,-0.35,-0.35,30,221.0382438750239,221.04320583306253,221.04320583306253,221.53593416605145,221.53593416605145,221.60949054104276,221.60949054104276,221.60949054104276,221.54270341608208,222.94477962504607,1,,,,,,,,701215,001,2025-08-14_13h31.56.552,tilt_staircase,2024.2.4,None,2025-08-14 13h33.50.153449 -0700
,,,,,,,,,,,,,,,,,,,,,,,,,,222.95263254106976,,,,,,,,,,,,,,,,,,,,,,,,,,,,,,,,,,,,,,,,,,,,,,,,,,,,,,,,,,,,,,,,,negc_noss,0.1,-0.05,-0.05,,222.94495033298153,222.95263254106976,222.95263254106976,223.4428326250054,223.4428326250054,223.51929099997506,223.51929099997506,223.51929099997506,223.4428326250054,224.27132075000554,1,,,,,,,,701215,001,2025-08-14_13h31.56.552,tilt_staircase,2024.2.4,None,2025-08-14 13h33.50.153449 -0700
,,,,,,,,,,,,,,,,,,,,,,,,,,224.27566450007726,,,,,,,,,,,,,,,,,,,,,,,,,,,,,,,,,,,,,,,,,,,,,,,,,,,,,,,,,,,,,,,,,posc_negs,0.1,-0.7,-0.7,-30,224.27151233307086,224.27566450007726,224.27566450007726,224.76925350003876,224.76925350003876,224.8423047499964,224.8423047499964,224.8423047499964,224.77573945804033,227.3052130410215,1,,,,,,,,701215,001,2025-08-14_13h31.56.552,tilt_staircase,2024.2.4,None,2025-08-14 13h33.50.153449 -0700
,,,,,,,,,,,,,,,,,,,,,,,,,,227.30895716603845,,,,,,,,,,,,,,,,,,,,,,,,,,,,,,,,,,,,,,,,,,,,,,,,,,,,,,,,,,,,,,,,,posc_negs,0.1,-0.8,-0.8,-30,227.30547137500253,227.30895716603845,227.30895716603845,227.80250258301385,227.80250258301385,227.87608375004493,227.87608375004493,227.87608375004493,227.8090496250661,228.43827362498268,0,,,,,,,,701215,001,2025-08-14_13h31.56.552,tilt_staircase,2024.2.4,None,2025-08-14 13h33.50.153449 -0700
,,,,,,,,,,,,,,,,,,,,,,,,,,228.44259474996943,,,,,,,,,,,,,,,,,,,,,,,,,,,,,,,,,,,,,,,,,,,,,,,,,,,,,,,,,,,,,,,,,posc_poss,0.1,-0.45,-0.45,30,228.43846137507353,228.44259474996943,228.44259474996943,228.93586099997628,228.93586099997628,229.00888604100328,229.00888604100328,229.00888604100328,228.94306504097767,229.7267332500778,0,,,,,,,,701215,001,2025-08-14_13h31.56.552,tilt_staircase,2024.2.4,None,2025-08-14 13h33.50.153449 -0700
,,,,,,,,,,,,,,,,,,,,,,,,,,,,,,,,,,,,,,,,,,,,,,,,,,,,,,,,,,,,,,,,,,,,,,,,,,,,,,,,,,,,,,,,,,,,,,,,,,,,,,,,,,,229.72679633297957,229.7359455410624,229.7359455410624,231.1787017500028,space,1.4399889999767765,None,701215,001,2025-08-14_13h31.56.552,tilt_staircase,2024.2.4,None,2025-08-14 13h33.50.153449 -0700