center,surround,correct,thisN,thisTrialN,thisRepN,key_resp_3.keys,key_resp_3.corr,key_resp_3.rt,key_resp_3.duration,opacity,key_resp_4.keys,key_resp_4.corr,key_resp_4.rt,key_resp_4.duration,practice_no_time.thisRepN,practice_no_time.thisTrialN,practice_no_time.thisN,practice_no_time.thisIndex,practice_timed.thisRepN,practice_timed.thisTrialN,practice_timed.thisN,practice_timed.thisIndex,thisRow.t,notes,instr.started,text_5.started,key_resp_2.started,instr.stopped,key_resp_2.keys,key_resp_2.rt,key_resp_2.duration,instr2.started,text_6.started,key_resp_6.started,instr2.stopped,key_resp_6.keys,key_resp_6.rt,key_resp_6.duration,practice_trial.started,key_resp_3.started,text_9.started,surround_practice.started,center_practice.started,text_9.stopped,surround_practice.stopped,center_practice.stopped,text_11.started,practice_trial.stopped,practice_no_time.key_resp_3.keys,practice_no_time.key_resp_3.corr,practice_no_time.key_resp_3.rt,practice_no_time.key_resp_3.duration,practice_feedback.started,text_7.started,practice_feedback.stopped,text_7.stopped,instr3.started,text_8.started,key_resp_5.started,instr3.stopped,key_resp_5.keys,key_resp_5.rt,key_resp_5.duration,practice_trial_timed.started,key_resp_4.started,text_10.started,surround_practice_2.started,center_practice_2.started,text_10.stopped,surround_practice_2.stopped,center_practice_2.stopped,text_12.started,practice_trial_timed.stopped,practice_timed.key_resp_4.keys,practice_timed.key_resp_4.corr,practice_timed.key_resp_4.rt,practice_timed.key_resp_4.duration,start_instr.started,text_13.started,key_resp_8.started,start_instr.stopped,key_resp_8.keys,key_resp_8.rt,key_resp_8.duration,trials.label,trials.nReps,trials.startVal,trials.maxVal,trials.minVal,trials.stepSizes,trials.stepType,trials.nUp,trials.nDown,trials.nReversals,trials.thisIndex,trials.thisRepN,trials.thisN,trials.direction,trials.stepSize,trials.intensity,center_angle,surround_angle,trial.started,resp.started,text_2.started,surround_grating.started,center_grating.started,surround_grating.stopped,center_grating.stopped,text_3.started,text_2.stopped,trial.stopped,trials.response,end.started,text_4.started,key_resp.started,end.stopped,key_resp.keys,key_resp.rt,key_resp.duration,participant,session,date,expName,psychopyVersion,frameRate,expStart,
,,,,,,,,,,,,,,,,,,,,,,,,,0.013539292034693062,0.023937584017403424,0.023937584017403424,0.5207898749504238,space,0.46287679206579924,None,,,,,,,,,,,,,,,,,,,,,,,,,,,,,,,,,,,,,,,,,,,,,,,,,,,,,,,,,,,,,,,,,,,,,,,,,,,,,,,,,,,,,,,,,,716259,001,2025-08-14_16h17.39.902,tilt_staircase,2024.2.4,None,2025-08-14 16h17.49.994843 -0700,
,,,,,,,,,,,,,,,,,,,,,,,,,,,,,,,,0.5208320419769734,0.5295355420093983,0.5295355420093983,0.7176147090503946,space,0.17787091701757163,None,,,,,,,,,,,,,,,,,,,,,,,,,,,,,,,,,,,,,,,,,,,,,,,,,,,,,,,,,,,,,,,,,,,,,,,,,,,,,,,,,,,716259,001,2025-08-14_16h17.39.902,tilt_staircase,2024.2.4,None,2025-08-14 16h17.49.994843 -0700,
30,0,right,0,0,0,right,1,2.006776791997254,None,,,,,,0,0,0,0,,,,,0.7341964170336723,,,,,,,,,,,,,,,,0.724016624968499,0.7341964170336723,0.7341964170336723,1.2182401249883696,1.2182401249883696,1.2313737090444192,2.215117375017144,2.215117375017144,2.215117375017144,2.751926749944687,right,1,2.006776791997254,None,2.755055750021711,2.795812041964382,4.256698000011966,,,,,,,,,,,,,,,,,,,,,,,,,,,,,,,,,,,,,,,,,,,,,,,,,,,,,,,,,,,,,,,,,,716259,001,2025-08-14_16h17.39.902,tilt_staircase,2024.2.4,None,2025-08-14 16h17.49.994843 -0700,
-30,0,left,1,1,0,left,1,0.8780020410194993,None,,,,,,0,1,1,1,,,,,4.265517374966294,,,,,,,,,,,,,,,,4.256941749947146,4.265517374966294,4.265517374966294,4.748462000046857,4.748462000046857,4.754025958944112,,,,5.152069041971117,left,1,0.8780020410194993,None,5.152147375047207,5.157881750026718,6.65123554202728,6.655105166952126,,,,,,,,,,,,,,,,,,,,,,,,,,,,,,,,,,,,,,,,,,,,,,,,,,,,,,,,,,,,,,,,,716259,001,2025-08-14_16h17.39.902,tilt_staircase,2024.2.4,None,2025-08-14 16h17.49.994843 -0700,
30,60,right,2,2,0,right,1,0.8646364590385929,None,,,,,,0,2,2,2,,,,,6.655105166952126,,,,,,,,,,,,,,,,6.651482249959372,6.655105166952126,6.655105166952126,7.148793375003152,7.148793375003152,7.148793375003152,,,,7.524434125050902,right,1,0.8646364590385929,None,7.524506208952516,7.531192124937661,9.017917250050232,9.021709249936976,,,,,,,,,,,,,,,,,,,,,,,,,,,,,,,,,,,,,,,,,,,,,,,,,,,,,,,,,,,,,,,,,716259,001,2025-08-14_16h17.39.902,tilt_staircase,2024.2.4,None,2025-08-14 16h17.49.994843 -0700,
-30,-60,left,3,3,0,left,1,1.7036679579177871,None,,,,,,0,3,3,3,,,,,9.021709249936976,,,,,,,,,,,,,,,,9.018168749986216,9.021709249936976,9.021709249936976,9.522054375032894,9.522054375032894,9.515464958967641,10.515385083970614,10.515385083970614,10.521571499994025,10.734639292000793,left,1,1.7036679579177871,None,10.734704124974087,10.739263709052466,12.234515291987918,12.238876666990109,,,,,,,,,,,,,,,,,,,,,,,,,,,,,,,,,,,,,,,,,,,,,,,,,,,,,,,,,,,,,,,,,716259,001,2025-08-14_16h17.39.902,tilt_staircase,2024.2.4,None,2025-08-14 16h17.49.994843 -0700,
,,,,,,,,,,,,,,,,,,,,,,,,,,,,,,,,,,,,,,,,,,,,,,,,,,,,,,,,,12.23460416693706,12.238876666990109,12.238876666990109,13.06879549997393,space,0.8232973749982193,None,,,,,,,,,,,,,,,,,,,,,,,,,,,,,,,,,,,,,,,,,,,,,,,,,,,,,,,,,,716259,001,2025-08-14_16h17.39.902,tilt_staircase,2024.2.4,None,2025-08-14 16h17.49.994843 -0700,
-30,-60,left,0,0,0,,,,,100,left,1,0.8902490420732647,None,,,,,0,0,0,0,13.082519624964334,,,,,,,,,,,,,,,,,,,,,,,,,,,,,,13.974189416971058,13.981358584016562,15.467842499958351,15.471755624981597,,,,,,,,13.074793500010855,13.082519624964334,13.082519624964334,13.56449441704899,13.56449441704899,13.581677209003828,13.637973292032257,13.637973292032257,13.637973292032257,13.974115916993469,left,1,0.8902490420732647,None,,,,,,,,,,,,,,,,,,,,,,,,,,,,,,,,,,,,,,,,,,,,716259,001,2025-08-14_16h17.39.902,tilt_staircase,2024.2.4,None,2025-08-14 16h17.49.994843 -0700,
-30,0,left,1,1,0,,,,,100,left,1,0.8904066670220345,None,,,,,0,1,1,1,15.471755624981597,,,,,,,,,,,,,,,,,,,,,,,,,,,,,,16.368453125003725,16.37268845899962,17.867871167021804,17.87179083400406,,,,,,,,15.468137542018667,15.471755624981597,15.471755624981597,15.972265874966979,15.972265874966979,15.96548450004775,16.048795958980918,16.048795958980918,16.048795958980918,16.36838441703003,left,1,0.8904066670220345,None,,,,,,,,,,,,,,,,,,,,,,,,,,,,,,,,,,,,,,,,,,,,716259,001,2025-08-14_16h17.39.902,tilt_staircase,2024.2.4,None,2025-08-14 16h17.49.994843 -0700,
30,60,right,2,2,0,,,,,100,right,1,0.8641934579936787,None,,,,,0,2,2,2,17.87179083400406,,,,,,,,,,,,,,,,,,,,,,,,,,,,,,18.740710792015307,18.74810812494252,20.234843499958515,20.238812417024747,,,,,,,,17.868126041954383,17.87179083400406,17.87179083400406,18.365409124991857,18.365409124991857,18.365409124991857,18.438147124950774,18.438147124950774,18.438147124950774,18.74062799999956,right,1,0.8641934579936787,None,,,,,,,,,,,,,,,,,,,,,,,,,,,,,,,,,,,,,,,,,,,,716259,001,2025-08-14_16h17.39.902,tilt_staircase,2024.2.4,None,2025-08-14 16h17.49.994843 -0700,
30,0,right,3,3,0,,,,,100,right,1,0.9624813750851899,None,,,,,0,3,3,3,20.238812417024747,,,,,,,,,,,,,,,,,,,,,,,,,,,,,,21.21048550005071,21.214487583958544,22.70115120895207,22.705070917028934,,,,,,,,20.235130583983846,20.238812417024747,20.238812417024747,20.73875333403703,20.73875333403703,20.73875333403703,20.815463208942674,20.815463208942674,20.815463208942674,21.210401416989043,right,1,0.9624813750851899,None,,,,,,,,,,,,,,,,,,,,,,,,,,,,,,,,,,,,,,,,,,,,716259,001,2025-08-14_16h17.39.902,tilt_staircase,2024.2.4,None,2025-08-14 16h17.49.994843 -0700,
-30,69,left,4,4,0,,,,,0,left,1,0.9059552500257269,None,,,,,0,4,4,4,22.705070917028934,,,,,,,,,,,,,,,,,,,,,,,,,,,,,,23.61853058403358,23.622955417027697,25.117871333961375,25.121725625009276,,,,,,,,22.70141879201401,22.705070917028934,22.705070917028934,23.205081708962098,23.205081708962098,23.198791250004433,23.282093374989927,23.282093374989927,23.287829000037163,23.61845737497788,left,1,0.9059552500257269,None,,,,,,,,,,,,,,,,,,,,,,,,,,,,,,,,,,,,,,,,,,,,716259,001,2025-08-14_16h17.39.902,tilt_staircase,2024.2.4,None,2025-08-14 16h17.49.994843 -0700,
30,69,right,5,5,0,,,,,0,right,1,0.8830724169965833,None,,,,,0,5,5,5,25.121725625009276,,,,,,,,,,,,,,,,,,,,,,,,,,,,,,26.00793379195966,26.014467958942987,27.501166292000562,27.505587209016085,,,,,,,,25.11814958404284,25.121725625009276,25.121725625009276,25.615551208960824,25.615551208960824,25.615551208960824,25.688162709004246,25.688162709004246,25.688162709004246,26.0078533339547,right,1,0.8830724169965833,None,,,,,,,,,,,,,,,,,,,,,,,,,,,,,,,,,,,,,,,,,,,,716259,001,2025-08-14_16h17.39.902,tilt_staircase,2024.2.4,None,2025-08-14 16h17.49.994843 -0700,
,,,,,,,,,,,,,,,,,,,,,,,,,,,,,,,,,,,,,,,,,,,,,,,,,,,,,,,,,,,,,,,,,,,,,,,,,,,,,,27.501274417038076,27.505587209016085,27.505587209016085,28.374424875015393,space,0.8634177920175716,None,,,,,,,,,,,,,,,,,,,,,,,,,,,,,,,,,,,,,716259,001,2025-08-14_16h17.39.902,tilt_staircase,2024.2.4,None,2025-08-14 16h17.49.994843 -0700,
,,,,,,,,,,,,,,,,,,,,,,,28.473804792040028,,,,,,,,,,,,,,,,,,,,,,,,,,,,,,,,,,,,,,,,,,,,,,,,,,,,,,,,,,,,,,posc_poss,30,15,15,-15,"[5, 2, 1, 0.5, 0.25, 0.1]",lin,1,1,7,3,1,0,start,5,15,15,30,28.468881375039928,28.473804792040028,28.473804792040028,28.874391083954833,28.874391083954833,28.94847279204987,28.94847279204987,28.94847279204987,28.970221083960496,29.802725667017512,1,,,,,,,,716259,001,2025-08-14_16h17.39.902,tilt_staircase,2024.2.4,None,2025-08-14 16h17.49.994843 -0700,
,,,,,,,,,,,,,,,,,,,,,,,29.809111124952324,,,,,,,,,,,,,,,,,,,,,,,,,,,,,,,,,,,,,,,,,,,,,,,,,,,,,,,,,,,,,,posc_noss,30,15,15,-15,"[5, 2, 1, 0.5, 0.25, 0.1]",lin,1,1,7,5,1,1,start,5,15,15,,29.80345666699577,29.809111124952324,29.809111124952324,30.298797499970533,30.298797499970533,30.371606125030667,30.371606125030667,30.371606125030667,30.304376084008254,30.98512354202103,1,,,,,,,,716259,001,2025-08-14_16h17.39.902,tilt_staircase,2024.2.4,None,2025-08-14 16h17.49.994843 -0700,
,,,,,,,,,,,,,,,,,,,,,,,30.991364749963395,,,,,,,,,,,,,,,,,,,,,,,,,,,,,,,,,,,,,,,,,,,,,,,,,,,,,,,,,,,,,,posc_negs,30,15,15,-15,"[5, 2, 1, 0.5, 0.25, 0.1]",lin,1,1,7,1,1,2,start,5,15,15,-30,30.985734042013064,30.991364749963395,30.991364749963395,31.48207837494556,31.48207837494556,31.55468058399856,31.55468058399856,31.55468058399856,31.48778145899996,32.08500358404126,1,,,,,,,,716259,001,2025-08-14_16h17.39.902,tilt_staircase,2024.2.4,None,2025-08-14 16h17.49.994843 -0700,
,,,,,,,,,,,,,,,,,,,,,,,32.090882166987285,,,,,,,,,,,,,,,,,,,,,,,,,,,,,,,,,,,,,,,,,,,,,,,,,,,,,,,,,,,,,,negc_negs,30,-15,15,-15,"[5, 2, 1, 0.5, 0.25, 0.1]",lin,1,1,7,0,1,3,start,5,-15,-15,-30,32.085589208989404,32.090882166987285,32.090882166987285,32.58171404199675,32.58171404199675,32.654893334023654,32.654893334023654,32.654893334023654,32.58703079202678,33.19101262500044,0,,,,,,,,716259,001,2025-08-14_16h17.39.902,tilt_staircase,2024.2.4,None,2025-08-14 16h17.49.994843 -0700,
,,,,,,,,,,,,,,,,,,,,,,,33.19775037502404,,,,,,,,,,,,,,,,,,,,,,,,,,,,,,,,,,,,,,,,,,,,,,,,,,,,,,,,,,,,,,negc_noss,30,-15,15,-15,"[5, 2, 1, 0.5, 0.25, 0.1]",lin,1,1,7,4,1,4,start,5,-15,-15,,33.191626250045374,33.19775037502404,33.19775037502404,33.68880366696976,33.68880366696976,33.76538812497165,33.76538812497165,33.76538812497165,33.68880366696976,34.18524424999487,0,,,,,,,,716259,001,2025-08-14_16h17.39.902,tilt_staircase,2024.2.4,None,2025-08-14 16h17.49.994843 -0700,
,,,,,,,,,,,,,,,,,,,,,,,34.19051829201635,,,,,,,,,,,,,,,,,,,,,,,,,,,,,,,,,,,,,,,,,,,,,,,,,,,,,,,,,,,,,,negc_poss,30,-15,15,-15,"[5, 2, 1, 0.5, 0.25, 0.1]",lin,1,1,7,2,1,5,start,5,-15,-15,30,34.185872709029354,34.19051829201635,34.19051829201635,34.68200416699983,34.68200416699983,34.75442995899357,34.75442995899357,34.75442995899357,34.68767683394253,35.23347533401102,0,,,,,,,,716259,001,2025-08-14_16h17.39.902,tilt_staircase,2024.2.4,None,2025-08-14 16h17.49.994843 -0700,
,,,,,,,,,,,,,,,,,,,,,,,35.23741845902987,,,,,,,,,,,,,,,,,,,,,,,,,,,,,,,,,,,,,,,,,,,,,,,,,,,,,,,,,,,,,,posc_poss,30,15,15,-15,"[5, 2, 1, 0.5, 0.25, 0.1]",lin,1,1,7,3,2,6,down,5,10,10,30,35.233869374962524,35.23741845902987,35.23741845902987,35.731221874943,35.731221874943,35.801955583970994,35.801955583970994,35.801955583970994,35.73557179199997,36.20173004199751,1,,,,,,,,716259,001,2025-08-14_16h17.39.902,tilt_staircase,2024.2.4,None,2025-08-14 16h17.49.994843 -0700,
,,,,,,,,,,,,,,,,,,,,,,,36.2065717499936,,,,,,,,,,,,,,,,,,,,,,,,,,,,,,,,,,,,,,,,,,,,,,,,,,,,,,,,,,,,,,negc_poss,30,-15,15,-15,"[5, 2, 1, 0.5, 0.25, 0.1]",lin,1,1,7,2,2,7,up,5,-10,-10,30,36.20221737504471,36.2065717499936,36.2065717499936,36.69789483398199,36.69789483398199,36.768429000047036,36.768429000047036,36.768429000047036,36.70206958404742,37.1842457089806,0,,,,,,,,716259,001,2025-08-14_16h17.39.902,tilt_staircase,2024.2.4,None,2025-08-14 16h17.49.994843 -0700,
,,,,,,,,,,,,,,,,,,,,,,,37.18859929195605,,,,,,,,,,,,,,,,,,,,,,,,,,,,,,,,,,,,,,,,,,,,,,,,,,,,,,,,,,,,,,posc_noss,30,15,15,-15,"[5, 2, 1, 0.5, 0.25, 0.1]",lin,1,1,7,5,2,8,down,5,10,10,,37.18477591697592,37.18859929195605,37.18859929195605,37.68215883395169,37.68215883395169,37.752797084045596,37.752797084045596,37.752797084045596,37.68761883396655,38.152026709052734,1,,,,,,,,716259,001,2025-08-14_16h17.39.902,tilt_staircase,2024.2.4,None,2025-08-14 16h17.49.994843 -0700,
,,,,,,,,,,,,,,,,,,,,,,,38.15775970905088,,,,,,,,,,,,,,,,,,,,,,,,,,,,,,,,,,,,,,,,,,,,,,,,,,,,,,,,,,,,,,negc_negs,30,-15,15,-15,"[5, 2, 1, 0.5, 0.25, 0.1]",lin,1,1,7,0,2,9,up,5,-10,-10,-30,38.15261791704688,38.15775970905088,38.15775970905088,38.64781504194252,38.64781504194252,38.719676584005356,38.719676584005356,38.719676584005356,38.65244233398698,39.072894042008556,0,,,,,,,,716259,001,2025-08-14_16h17.39.902,tilt_staircase,2024.2.4,None,2025-08-14 16h17.49.994843 -0700,
,,,,,,,,,,,,,,,,,,,,,,,39.08135495893657,,,,,,,,,,,,,,,,,,,,,,,,,,,,,,,,,,,,,,,,,,,,,,,,,,,,,,,,,,,,,,posc_negs,30,15,15,-15,"[5, 2, 1, 0.5, 0.25, 0.1]",lin,1,1,7,1,2,10,down,5,10,10,-30,39.073523166938685,39.08135495893657,39.08135495893657,39.57179654203355,39.57179654203355,39.64878787496127,39.64878787496127,39.64878787496127,39.57179654203355,40.006853958941065,1,,,,,,,,716259,001,2025-08-14_16h17.39.902,tilt_staircase,2024.2.4,None,2025-08-14 16h17.49.994843 -0700,
,,,,,,,,,,,,,,,,,,,,,,,40.014936625026166,,,,,,,,,,,,,,,,,,,,,,,,,,,,,,,,,,,,,,,,,,,,,,,,,,,,,,,,,,,,,,negc_noss,30,-15,15,-15,"[5, 2, 1, 0.5, 0.25, 0.1]",lin,1,1,7,4,2,11,up,5,-10,-10,,40.007449791999534,40.014936625026166,40.014936625026166,40.50337562500499,40.50337562500499,40.581202000030316,40.581202000030316,40.58570916694589,40.50337562500499,40.951963084051386,0,,,,,,,,716259,001,2025-08-14_16h17.39.902,tilt_staircase,2024.2.4,None,2025-08-14 16h17.49.994843 -0700,
,,,,,,,,,,,,,,,,,,,,,,,40.95819879195187,,,,,,,,,,,,,,,,,,,,,,,,,,,,,,,,,,,,,,,,,,,,,,,,,,,,,,,,,,,,,,posc_poss,30,15,15,-15,"[5, 2, 1, 0.5, 0.25, 0.1]",lin,1,1,7,3,3,12,down,5,5,5,30,40.952643709024414,40.95819879195187,40.95819879195187,41.448752208962105,41.448752208962105,41.5214059590362,41.5214059590362,41.5214059590362,41.454528374946676,41.95540645904839,1,,,,,,,,716259,001,2025-08-14_16h17.39.902,tilt_staircase,2024.2.4,None,2025-08-14 16h17.49.994843 -0700,
,,,,,,,,,,,,,,,,,,,,,,,41.964838042040356,,,,,,,,,,,,,,,,,,,,,,,,,,,,,,,,,,,,,,,,,,,,,,,,,,,,,,,,,,,,,,negc_noss,30,-15,15,-15,"[5, 2, 1, 0.5, 0.25, 0.1]",lin,1,1,7,4,3,13,up,5,-5,-5,,41.95592500001658,41.964838042040356,41.964838042040356,42.45507300004829,42.45507300004829,42.531996791949496,42.531996791949496,42.531996791949496,42.45507300004829,42.90034512500279,0,,,,,,,,716259,001,2025-08-14_16h17.39.902,tilt_staircase,2024.2.4,None,2025-08-14 16h17.49.994843 -0700,
,,,,,,,,,,,,,,,,,,,,,,,42.90449166693725,,,,,,,,,,,,,,,,,,,,,,,,,,,,,,,,,,,,,,,,,,,,,,,,,,,,,,,,,,,,,,negc_negs,30,-15,15,-15,"[5, 2, 1, 0.5, 0.25, 0.1]",lin,1,1,7,0,3,14,up,5,-5,-5,-30,42.900946708978154,42.90449166693725,42.90449166693725,43.39880408404861,43.39880408404861,43.47143358399626,43.47143358399626,43.47143358399626,43.39880408404861,43.98506962496322,0,,,,,,,,716259,001,2025-08-14_16h17.39.902,tilt_staircase,2024.2.4,None,2025-08-14 16h17.49.994843 -0700,
,,,,,,,,,,,,,,,,,,,,,,,43.99118150002323,,,,,,,,,,,,,,,,,,,,,,,,,,,,,,,,,,,,,,,,,,,,,,,,,,,,,,,,,,,,,,posc_noss,30,15,15,-15,"[5, 2, 1, 0.5, 0.25, 0.1]",lin,1,1,7,5,3,15,down,5,5,5,,43.98567833402194,43.99118150002323,43.99118150002323,44.48169033403974,44.48169033403974,44.55448320903815,44.55448320903815,44.55448320903815,44.48728687502444,44.9407460000366,1,,,,,,,,716259,001,2025-08-14_16h17.39.902,tilt_staircase,2024.2.4,None,2025-08-14 16h17.49.994843 -0700,
,,,,,,,,,,,,,,,,,,,,,,,44.947815167019144,,,,,,,,,,,,,,,,,,,,,,,,,,,,,,,,,,,,,,,,,,,,,,,,,,,,,,,,,,,,,,posc_negs,30,15,15,-15,"[5, 2, 1, 0.5, 0.25, 0.1]",lin,1,1,7,1,3,16,down,5,5,5,-30,44.94133729196619,44.947815167019144,44.947815167019144,45.438320750021376,45.438320750021376,45.515417249989696,45.515417249989696,45.515417249989696,45.438320750021376,45.96826041699387,1,,,,,,,,716259,001,2025-08-14_16h17.39.902,tilt_staircase,2024.2.4,None,2025-08-14 16h17.49.994843 -0700,
,,,,,,,,,,,,,,,,,,,,,,,45.974237250047736,,,,,,,,,,,,,,,,,,,,,,,,,,,,,,,,,,,,,,,,,,,,,,,,,,,,,,,,,,,,,,negc_poss,30,-15,15,-15,"[5, 2, 1, 0.5, 0.25, 0.1]",lin,1,1,7,2,3,17,up,5,-5,-5,30,45.968852458987385,45.974237250047736,45.974237250047736,46.465044333948754,46.465044333948754,46.53793583402876,46.53793583402876,46.53793583402876,46.47035029204562,46.9571881670272,0,,,,,,,,716259,001,2025-08-14_16h17.39.902,tilt_staircase,2024.2.4,None,2025-08-14 16h17.49.994843 -0700,
,,,,,,,,,,,,,,,,,,,,,,,46.96442470897455,,,,,,,,,,,,,,,,,,,,,,,,,,,,,,,,,,,,,,,,,,,,,,,,,,,,,,,,,,,,,,posc_negs,30,15,15,-15,"[5, 2, 1, 0.5, 0.25, 0.1]",lin,1,1,7,1,4,18,down,5,0,0,-30,46.95780854194891,46.96442470897455,46.96442470897455,47.455211041960865,47.455211041960865,47.53204641700722,47.53204641700722,47.53204641700722,47.455211041960865,47.96871983399615,1,,,,,,,,716259,001,2025-08-14_16h17.39.902,tilt_staircase,2024.2.4,None,2025-08-14 16h17.49.994843 -0700,
,,,,,,,,,,,,,,,,,,,,,,,47.97471870901063,,,,,,,,,,,,,,,,,,,,,,,,,,,,,,,,,,,,,,,,,,,,,,,,,,,,,,,,,,,,,,posc_noss,30,15,15,-15,"[5, 2, 1, 0.5, 0.25, 0.1]",lin,1,1,7,5,4,19,down,5,0,0,,47.96931008400861,47.97471870901063,47.97471870901063,48.46527187502943,48.46527187502943,48.53784420900047,48.53784420900047,48.53784420900047,48.47103191702627,51.12434608396143,0,,,,,,,,716259,001,2025-08-14_16h17.39.902,tilt_staircase,2024.2.4,None,2025-08-14 16h17.49.994843 -0700,
,,,,,,,,,,,,,,,,,,,,,,,51.13110754196532,,,,,,,,,,,,,,,,,,,,,,,,,,,,,,,,,,,,,,,,,,,,,,,,,,,,,,,,,,,,,,negc_noss,30,-15,15,-15,"[5, 2, 1, 0.5, 0.25, 0.1]",lin,1,1,7,4,4,20,up,5,0,0,,51.124987874994986,51.13110754196532,51.13110754196532,51.62191162502859,51.62191162502859,51.69860200001858,51.69860200001858,51.69860200001858,51.62191162502859,52.388863374944776,0,,,,,,,,716259,001,2025-08-14_16h17.39.902,tilt_staircase,2024.2.4,None,2025-08-14 16h17.49.994843 -0700,
,,,,,,,,,,,,,,,,,,,,,,,52.39786845899653,,,,,,,,,,,,,,,,,,,,,,,,,,,,,,,,,,,,,,,,,,,,,,,,,,,,,,,,,,,,,,negc_negs,30,-15,15,-15,"[5, 2, 1, 0.5, 0.25, 0.1]",lin,1,1,7,0,4,21,up,5,0,0,-30,52.38951066695154,52.39786845899653,52.39786845899653,52.881667291978374,52.881667291978374,52.9544684169814,52.9544684169814,52.965455166995525,52.887027416960336,53.407677666982636,1,,,,,,,,716259,001,2025-08-14_16h17.39.902,tilt_staircase,2024.2.4,None,2025-08-14 16h17.49.994843 -0700,
,,,,,,,,,,,,,,,,,,,,,,,53.4144927499583,,,,,,,,,,,,,,,,,,,,,,,,,,,,,,,,,,,,,,,,,,,,,,,,,,,,,,,,,,,,,,negc_poss,30,-15,15,-15,"[5, 2, 1, 0.5, 0.25, 0.1]",lin,1,1,7,2,4,22,up,5,0,0,30,53.408320749993436,53.4144927499583,53.4144927499583,53.90524116693996,53.90524116693996,53.9820730839856,53.9820730839856,53.9820730839856,53.90524116693996,54.3910329999635,0,,,,,,,,716259,001,2025-08-14_16h17.39.902,tilt_staircase,2024.2.4,None,2025-08-14 16h17.49.994843 -0700,
,,,,,,,,,,,,,,,,,,,,,,,54.397754417033866,,,,,,,,,,,,,,,,,,,,,,,,,,,,,,,,,,,,,,,,,,,,,,,,,,,,,,,,,,,,,,posc_poss,30,15,15,-15,"[5, 2, 1, 0.5, 0.25, 0.1]",lin,1,1,7,3,4,23,down,5,0,0,30,54.39163800003007,54.397754417033866,54.397754417033866,54.88828041695524,54.88828041695524,54.965412292047404,54.965412292047404,54.965412292047404,54.88828041695524,55.42343033396173,0,,,,,,,,716259,001,2025-08-14_16h17.39.902,tilt_staircase,2024.2.4,None,2025-08-14 16h17.49.994843 -0700,
,,,,,,,,,,,,,,,,,,,,,,,55.431547416956164,,,,,,,,,,,,,,,,,,,,,,,,,,,,,,,,,,,,,,,,,,,,,,,,,,,,,,,,,,,,,,negc_negs,30,-15,15,-15,"[5, 2, 1, 0.5, 0.25, 0.1]",lin,1,1,7,0,5,24,down,2,-2,-2,-30,55.424088625004515,55.431547416956164,55.431547416956164,55.92203495895956,55.92203495895956,55.99871004198212,55.99871004198212,55.99871004198212,55.92203495895956,56.43521649995819,1,,,,,,,,716259,001,2025-08-14_16h17.39.902,tilt_staircase,2024.2.4,None,2025-08-14 16h17.49.994843 -0700,
,,,,,,,,,,,,,,,,,,,,,,,56.441177166998386,,,,,,,,,,,,,,,,,,,,,,,,,,,,,,,,,,,,,,,,,,,,,,,,,,,,,,,,,,,,,,negc_noss,30,-15,15,-15,"[5, 2, 1, 0.5, 0.25, 0.1]",lin,1,1,7,4,5,25,up,5,5,5,,56.43581766705029,56.441177166998386,56.441177166998386,56.93172929203138,56.93172929203138,57.004487166996114,57.004487166996114,57.004487166996114,56.93733224994503,57.458543209009804,1,,,,,,,,716259,001,2025-08-14_16h17.39.902,tilt_staircase,2024.2.4,None,2025-08-14 16h17.49.994843 -0700,
,,,,,,,,,,,,,,,,,,,,,,,57.46468624996487,,,,,,,,,,,,,,,,,,,,,,,,,,,,,,,,,,,,,,,,,,,,,,,,,,,,,,,,,,,,,,posc_noss,30,15,15,-15,"[5, 2, 1, 0.5, 0.25, 0.1]",lin,1,1,7,5,5,26,up,2,2,2,,57.459148167050444,57.46468624996487,57.46468624996487,57.955233167042024,57.955233167042024,58.03194637503475,58.03194637503475,58.03194637503475,57.955233167042024,58.45798741700128,1,,,,,,,,716259,001,2025-08-14_16h17.39.902,tilt_staircase,2024.2.4,None,2025-08-14 16h17.49.994843 -0700,
,,,,,,,,,,,,,,,,,,,,,,,58.46443412499502,,,,,,,,,,,,,,,,,,,,,,,,,,,,,,,,,,,,,,,,,,,,,,,,,,,,,,,,,,,,,,negc_poss,30,-15,15,-15,"[5, 2, 1, 0.5, 0.25, 0.1]",lin,1,1,7,2,5,27,up,5,5,5,30,58.4585942090489,58.46443412499502,58.46443412499502,58.95514474995434,58.95514474995434,59.03210199996829,59.03210199996829,59.03210199996829,58.95514474995434,59.4927468750393,1,,,,,,,,716259,001,2025-08-14_16h17.39.902,tilt_staircase,2024.2.4,None,2025-08-14 16h17.49.994843 -0700,
,,,,,,,,,,,,,,,,,,,,,,,59.49772658396978,,,,,,,,,,,,,,,,,,,,,,,,,,,,,,,,,,,,,,,,,,,,,,,,,,,,,,,,,,,,,,posc_poss,30,15,15,-15,"[5, 2, 1, 0.5, 0.25, 0.1]",lin,1,1,7,3,5,28,up,2,2,2,30,59.49336724996101,59.49772658396978,59.49772658396978,59.98706879199017,59.98706879199017,60.06455333402846,60.06455333402846,60.068767125019804,59.98706879199017,60.67460912500974,1,,,,,,,,716259,001,2025-08-14_16h17.39.902,tilt_staircase,2024.2.4,None,2025-08-14 16h17.49.994843 -0700,
,,,,,,,,,,,,,,,,,,,,,,,60.68109954195097,,,,,,,,,,,,,,,,,,,,,,,,,,,,,,,,,,,,,,,,,,,,,,,,,,,,,,,,,,,,,,posc_negs,30,15,15,-15,"[5, 2, 1, 0.5, 0.25, 0.1]",lin,1,1,7,1,5,29,down,5,-5,-5,-30,60.67564037500415,60.68109954195097,60.68109954195097,61.17205966694746,61.17205966694746,61.24875745899044,61.24875745899044,61.24875745899044,61.17205966694746,61.79093787504826,0,,,,,,,,716259,001,2025-08-14_16h17.39.902,tilt_staircase,2024.2.4,None,2025-08-14 16h17.49.994843 -0700,
,,,,,,,,,,,,,,,,,,,,,,,61.79776091699023,,,,,,,,,,,,,,,,,,,,,,,,,,,,,,,,,,,,,,,,,,,,,,,,,,,,,,,,,,,,,,negc_noss,30,-15,15,-15,"[5, 2, 1, 0.5, 0.25, 0.1]",lin,1,1,7,4,6,30,down,2,3,3,,61.79157804197166,61.79776091699023,61.79776091699023,62.28841066698078,62.28841066698078,62.36533312499523,62.36533312499523,62.36533312499523,62.28841066698078,62.78516791702714,1,,,,,,,,716259,001,2025-08-14_16h17.39.902,tilt_staircase,2024.2.4,None,2025-08-14 16h17.49.994843 -0700,
,,,,,,,,,,,,,,,,,,,,,,,62.791115166968666,,,,,,,,,,,,,,,,,,,,,,,,,,,,,,,,,,,,,,,,,,,,,,,,,,,,,,,,,,,,,,negc_negs,30,-15,15,-15,"[5, 2, 1, 0.5, 0.25, 0.1]",lin,1,1,7,0,6,31,down,2,-4,-4,-30,62.78579091699794,62.791115166968666,62.791115166968666,63.282043584040366,63.282043584040366,63.35489183396567,63.35489183396567,63.35489183396567,63.287993583944626,63.79100045899395,0,,,,,,,,716259,001,2025-08-14_16h17.39.902,tilt_staircase,2024.2.4,None,2025-08-14 16h17.49.994843 -0700,
,,,,,,,,,,,,,,,,,,,,,,,63.79774275003001,,,,,,,,,,,,,,,,,,,,,,,,,,,,,,,,,,,,,,,,,,,,,,,,,,,,,,,,,,,,,,posc_noss,30,15,15,-15,"[5, 2, 1, 0.5, 0.25, 0.1]",lin,1,1,7,5,6,32,down,1,1,1,,63.791641084011644,63.79774275003001,63.79774275003001,64.28818487504032,64.28818487504032,64.36531333404128,64.36531333404128,64.36531333404128,64.28818487504032,64.84107112500351,1,,,,,,,,716259,001,2025-08-14_16h17.39.902,tilt_staircase,2024.2.4,None,2025-08-14 16h17.49.994843 -0700,
,,,,,,,,,,,,,,,,,,,,,,,64.84775654203258,,,,,,,,,,,,,,,,,,,,,,,,,,,,,,,,,,,,,,,,,,,,,,,,,,,,,,,,,,,,,,posc_negs,30,15,15,-15,"[5, 2, 1, 0.5, 0.25, 0.1]",lin,1,1,7,1,6,33,up,2,-3,-3,-30,64.84168541699182,64.84775654203258,64.84775654203258,65.33857499994338,65.33857499994338,65.4153563339496,65.4153563339496,65.4153563339496,65.33857499994338,67.87462716700975,1,,,,,,,,716259,001,2025-08-14_16h17.39.902,tilt_staircase,2024.2.4,None,2025-08-14 16h17.49.994843 -0700,
,,,,,,,,,,,,,,,,,,,,,,,67.88109941699076,,,,,,,,,,,,,,,,,,,,,,,,,,,,,,,,,,,,,,,,,,,,,,,,,,,,,,,,,,,,,,negc_poss,30,-15,15,-15,"[5, 2, 1, 0.5, 0.25, 0.1]",lin,1,1,7,2,6,34,down,2,3,3,30,67.8752628340153,67.88109941699076,67.88109941699076,68.37185658398084,68.37185658398084,68.44869816699065,68.44869816699065,68.44869816699065,68.37185658398084,68.92385437502526,1,,,,,,,,716259,001,2025-08-14_16h17.39.902,tilt_staircase,2024.2.4,None,2025-08-14 16h17.49.994843 -0700,
,,,,,,,,,,,,,,,,,,,,,,,68.93109204201028,,,,,,,,,,,,,,,,,,,,,,,,,,,,,,,,,,,,,,,,,,,,,,,,,,,,,,,,,,,,,,posc_poss,30,15,15,-15,"[5, 2, 1, 0.5, 0.25, 0.1]",lin,1,1,7,3,6,35,down,1,1,1,30,68.92447183397599,68.93109204201028,68.93109204201028,69.42197320901323,69.42197320901323,69.49865474994294,69.49865474994294,69.49865474994294,69.42197320901323,70.08396341698244,1,,,,,,,,716259,001,2025-08-14_16h17.39.902,tilt_staircase,2024.2.4,None,2025-08-14 16h17.49.994843 -0700,
,,,,,,,,,,,,,,,,,,,,,,,70.08818258403335,,,,,,,,,,,,,,,,,,,,,,,,,,,,,,,,,,,,,,,,,,,,,,,,,,,,,,,,,,,,,,posc_noss,30,15,15,-15,"[5, 2, 1, 0.5, 0.25, 0.1]",lin,1,1,7,5,7,36,down,1,0,0,,70.084440000006,70.08818258403335,70.08818258403335,70.58200879197102,70.58200879197102,70.65467025001999,70.65467025001999,70.65467025001999,70.58200879197102,72.26828175003175,1,,,,,,,,716259,001,2025-08-14_16h17.39.902,tilt_staircase,2024.2.4,None,2025-08-14 16h17.49.994843 -0700,
,,,,,,,,,,,,,,,,,,,,,,,72.27426479198039,,,,,,,,,,,,,,,,,,,,,,,,,,,,,,,,,,,,,,,,,,,,,,,,,,,,,,,,,,,,,,negc_negs,30,-15,15,-15,"[5, 2, 1, 0.5, 0.25, 0.1]",lin,1,1,7,0,7,37,up,1,-3,-3,-30,72.26890504197218,72.27426479198039,72.27426479198039,72.76523995900061,72.76523995900061,72.83802008396015,72.83802008396015,72.83802008396015,72.77137166704051,73.39142429200001,0,,,,,,,,716259,001,2025-08-14_16h17.39.902,tilt_staircase,2024.2.4,None,2025-08-14 16h17.49.994843 -0700,
,,,,,,,,,,,,,,,,,,,,,,,73.39773929200601,,,,,,,,,,,,,,,,,,,,,,,,,,,,,,,,,,,,,,,,,,,,,,,,,,,,,,,,,,,,,,negc_poss,30,-15,15,-15,"[5, 2, 1, 0.5, 0.25, 0.1]",lin,1,1,7,2,7,38,down,2,1,1,30,73.39206504204776,73.39773929200601,73.39773929200601,73.88846899999771,73.88846899999771,73.96534379199147,73.96534379199147,73.96534379199147,73.88846899999771,74.4077213749988,1,,,,,,,,716259,001,2025-08-14_16h17.39.902,tilt_staircase,2024.2.4,None,2025-08-14 16h17.49.994843 -0700,
,,,,,,,,,,,,,,,,,,,,,,,74.41432866698597,,,,,,,,,,,,,,,,,,,,,,,,,,,,,,,,,,,,,,,,,,,,,,,,,,,,,,,,,,,,,,negc_noss,30,-15,15,-15,"[5, 2, 1, 0.5, 0.25, 0.1]",lin,1,1,7,4,7,39,down,2,1,1,,74.40833879204001,74.41432866698597,74.41432866698597,74.90501641703304,74.90501641703304,74.98203858395573,74.98203858395573,74.98203858395573,74.90501641703304,75.42423699994106,1,,,,,,,,716259,001,2025-08-14_16h17.39.902,tilt_staircase,2024.2.4,None,2025-08-14 16h17.49.994843 -0700,
,,,,,,,,,,,,,,,,,,,,,,,75.43097412504721,,,,,,,,,,,,,,,,,,,,,,,,,,,,,,,,,,,,,,,,,,,,,,,,,,,,,,,,,,,,,,posc_negs,30,15,15,-15,"[5, 2, 1, 0.5, 0.25, 0.1]",lin,1,1,7,1,7,40,down,1,-4,-4,-30,75.4248310419498,75.43097412504721,75.43097412504721,75.92187383398414,75.92187383398414,75.99874641699716,75.99874641699716,75.99874641699716,75.92187383398414,76.58573029201943,0,,,,,,,,716259,001,2025-08-14_16h17.39.902,tilt_staircase,2024.2.4,None,2025-08-14 16h17.49.994843 -0700,
,,,,,,,,,,,,,,,,,,,,,,,76.5918302499922,,,,,,,,,,,,,,,,,,,,,,,,,,,,,,,,,,,,,,,,,,,,,,,,,,,,,,,,,,,,,,posc_poss,30,15,15,-15,"[5, 2, 1, 0.5, 0.25, 0.1]",lin,1,1,7,3,7,41,down,1,0,0,30,76.58636104199104,76.5918302499922,76.5918302499922,77.08167337498162,77.08167337498162,77.15456199995242,77.15456199995242,77.15456199995242,77.08724191703368,77.72438054194208,0,,,,,,,,716259,001,2025-08-14_16h17.39.902,tilt_staircase,2024.2.4,None,2025-08-14 16h17.49.994843 -0700,
,,,,,,,,,,,,,,,,,,,,,,,77.73102033394389,,,,,,,,,,,,,,,,,,,,,,,,,,,,,,,,,,,,,,,,,,,,,,,,,,,,,,,,,,,,,,negc_noss,30,-15,15,-15,"[5, 2, 1, 0.5, 0.25, 0.1]",lin,1,1,7,4,8,42,down,2,-1,-1,,77.72502145904582,77.73102033394389,77.73102033394389,78.22178304195404,78.22178304195404,78.29868270899169,78.29868270899169,78.29868270899169,78.22178304195404,78.81860891694669,0,,,,,,,,716259,001,2025-08-14_16h17.39.902,tilt_staircase,2024.2.4,None,2025-08-14 16h17.49.994843 -0700,
,,,,,,,,,,,,,,,,,,,,,,,78.82460791699123,,,,,,,,,,,,,,,,,,,,,,,,,,,,,,,,,,,,,,,,,,,,,,,,,,,,,,,,,,,,,,posc_poss,30,15,15,-15,"[5, 2, 1, 0.5, 0.25, 0.1]",lin,1,1,7,3,8,43,up,0.5,0.5,0.5,30,78.81922958395444,78.82460791699123,78.82460791699123,79.3151827499969,79.3151827499969,79.38778612494934,79.38778612494934,79.38778612494934,79.32112766697537,79.94082620902918,1,,,,,,,,716259,001,2025-08-14_16h17.39.902,tilt_staircase,2024.2.4,None,2025-08-14 16h17.49.994843 -0700,
,,,,,,,,,,,,,,,,,,,,,,,79.94765120896045,,,,,,,,,,,,,,,,,,,,,,,,,,,,,,,,,,,,,,,,,,,,,,,,,,,,,,,,,,,,,,negc_negs,30,-15,15,-15,"[5, 2, 1, 0.5, 0.25, 0.1]",lin,1,1,7,0,8,44,up,1,-2,-2,-30,79.9414352090098,79.94765120896045,79.94765120896045,80.43864637496881,80.43864637496881,80.51530874997843,80.51530874997843,80.51530874997843,80.43864637496881,81.69093058397993,1,,,,,,,,716259,001,2025-08-14_16h17.39.902,tilt_staircase,2024.2.4,None,2025-08-14 16h17.49.994843 -0700,
,,,,,,,,,,,,,,,,,,,,,,,81.69765154202469,,,,,,,,,,,,,,,,,,,,,,,,,,,,,,,,,,,,,,,,,,,,,,,,,,,,,,,,,,,,,,posc_negs,30,15,15,-15,"[5, 2, 1, 0.5, 0.25, 0.1]",lin,1,1,7,1,8,45,up,0.5,-3.5,-3.5,-30,81.69156841700897,81.69765154202469,81.69765154202469,82.18854012503289,82.18854012503289,82.26524716697168,82.26524716697168,82.26524716697168,82.18854012503289,82.75739612500183,0,,,,,,,,716259,001,2025-08-14_16h17.39.902,tilt_staircase,2024.2.4,None,2025-08-14 16h17.49.994843 -0700,
,,,,,,,,,,,,,,,,,,,,,,,82.76431908400264,,,,,,,,,,,,,,,,,,,,,,,,,,,,,,,,,,,,,,,,,,,,,,,,,,,,,,,,,,,,,,negc_poss,30,-15,15,-15,"[5, 2, 1, 0.5, 0.25, 0.1]",lin,1,1,7,2,8,46,down,2,-1,-1,30,82.75801687501371,82.76431908400264,82.76431908400264,83.25510108401068,83.25510108401068,83.33200858393684,83.33200858393684,83.33200858393684,83.25510108401068,83.80190037505236,0,,,,,,,,716259,001,2025-08-14_16h17.39.902,tilt_staircase,2024.2.4,None,2025-08-14 16h17.49.994843 -0700,
,,,,,,,,,,,,,,,,,,,,,,,83.80805783404503,,,,,,,,,,,,,,,,,,,,,,,,,,,,,,,,,,,,,,,,,,,,,,,,,,,,,,,,,,,,,,posc_noss,30,15,15,-15,"[5, 2, 1, 0.5, 0.25, 0.1]",lin,1,1,7,5,8,47,down,1,-1,-1,,83.80252629204188,83.80805783404503,83.80805783404503,84.29861991701182,84.29861991701182,84.37123483396135,84.37123483396135,84.37123483396135,84.30443200003356,84.80753650004044,0,,,,,,,,716259,001,2025-08-14_16h17.39.902,tilt_staircase,2024.2.4,None,2025-08-14 16h17.49.994843 -0700,
,,,,,,,,,,,,,,,,,,,,,,,84.81431091704872,,,,,,,,,,,,,,,,,,,,,,,,,,,,,,,,,,,,,,,,,,,,,,,,,,,,,,,,,,,,,,posc_noss,30,15,15,-15,"[5, 2, 1, 0.5, 0.25, 0.1]",lin,1,1,7,5,9,48,up,0.5,-0.5,-0.5,,84.80821583396755,84.81431091704872,84.81431091704872,85.30502600001637,85.30502600001637,85.38201545900665,85.38201545900665,85.38201545900665,85.30502600001637,86.11875966703519,1,,,,,,,,716259,001,2025-08-14_16h17.39.902,tilt_staircase,2024.2.4,None,2025-08-14 16h17.49.994843 -0700,
,,,,,,,,,,,,,,,,,,,,,,,86.1248829170363,,,,,,,,,,,,,,,,,,,,,,,,,,,,,,,,,,,,,,,,,,,,,,,,,,,,,,,,,,,,,,posc_negs,30,15,15,-15,"[5, 2, 1, 0.5, 0.25, 0.1]",lin,1,1,7,1,9,49,up,0.5,-3.0,-3.0,-30,86.11943762504961,86.1248829170363,86.1248829170363,86.61524012498558,86.61524012498558,86.68754066701513,86.68754066701513,86.68754066701513,86.62096483400092,87.20786466693971,0,,,,,,,,716259,001,2025-08-14_16h17.39.902,tilt_staircase,2024.2.4,None,2025-08-14 16h17.49.994843 -0700,
,,,,,,,,,,,,,,,,,,,,,,,87.21435337502044,,,,,,,,,,,,,,,,,,,,,,,,,,,,,,,,,,,,,,,,,,,,,,,,,,,,,,,,,,,,,,negc_negs,30,-15,15,-15,"[5, 2, 1, 0.5, 0.25, 0.1]",lin,1,1,7,0,9,50,down,0.5,-2.5,-2.5,-30,87.20850291696843,87.21435337502044,87.21435337502044,87.70500737498514,87.70500737498514,87.781940249959,87.781940249959,87.781940249959,87.70500737498514,88.35206175001804,0,,,,,,,,716259,001,2025-08-14_16h17.39.902,tilt_staircase,2024.2.4,None,2025-08-14 16h17.49.994843 -0700,
,,,,,,,,,,,,,,,,,,,,,,,88.35814312496223,,,,,,,,,,,,,,,,,,,,,,,,,,,,,,,,,,,,,,,,,,,,,,,,,,,,,,,,,,,,,,negc_poss,30,-15,15,-15,"[5, 2, 1, 0.5, 0.25, 0.1]",lin,1,1,7,2,9,51,up,1,0,0,30,88.35267083405051,88.35814312496223,88.35814312496223,88.84861870901659,88.84861870901659,88.92121758405119,88.92121758405119,88.92121758405119,88.85453383403365,89.30807649996132,0,,,,,,,,716259,001,2025-08-14_16h17.39.902,tilt_staircase,2024.2.4,None,2025-08-14 16h17.49.994843 -0700,
,,,,,,,,,,,,,,,,,,,,,,,89.31435608398169,,,,,,,,,,,,,,,,,,,,,,,,,,,,,,,,,,,,,,,,,,,,,,,,,,,,,,,,,,,,,,negc_noss,30,-15,15,-15,"[5, 2, 1, 0.5, 0.25, 0.1]",lin,1,1,7,4,9,52,up,1,0,0,,89.30870299995877,89.31435608398169,89.31435608398169,89.80536691704765,89.80536691704765,89.88194262504112,89.88194262504112,89.88194262504112,89.80536691704765,90.63500433403533,1,,,,,,,,716259,001,2025-08-14_16h17.39.902,tilt_staircase,2024.2.4,None,2025-08-14 16h17.49.994843 -0700,
,,,,,,,,,,,,,,,,,,,,,,,90.64014150004368,,,,,,,,,,,,,,,,,,,,,,,,,,,,,,,,,,,,,,,,,,,,,,,,,,,,,,,,,,,,,,posc_poss,30,15,15,-15,"[5, 2, 1, 0.5, 0.25, 0.1]",lin,1,1,7,3,9,53,down,0.25,0.25,0.25,30,90.63564379198942,90.64014150004368,90.64014150004368,91.13189670897555,91.13189670897555,91.20463249995373,91.20463249995373,91.20463249995373,91.137685084017,91.89014612499159,0,,,,,,,,716259,001,2025-08-14_16h17.39.902,tilt_staircase,2024.2.4,None,2025-08-14 16h17.49.994843 -0700,
,,,,,,,,,,,,,,,,,,,,,,,91.8976341249654,,,,,,,,,,,,,,,,,,,,,,,,,,,,,,,,,,,,,,,,,,,,,,,,,,,,,,,,,,,,,,posc_noss,30,15,15,-15,"[5, 2, 1, 0.5, 0.25, 0.1]",lin,1,1,7,5,10,54,down,0.25,-0.75,-0.75,,91.89078495895956,91.8976341249654,91.8976341249654,92.38855437503662,92.38855437503662,92.4653583340114,92.4653583340114,92.4653583340114,92.38855437503662,92.93547658401076,0,,,,,,,,716259,001,2025-08-14_16h17.39.902,tilt_staircase,2024.2.4,None,2025-08-14 16h17.49.994843 -0700,
,,,,,,,,,,,,,,,,,,,,,,,92.94152762496378,,,,,,,,,,,,,,,,,,,,,,,,,,,,,,,,,,,,,,,,,,,,,,,,,,,,,,,,,,,,,,negc_noss,30,-15,15,-15,"[5, 2, 1, 0.5, 0.25, 0.1]",lin,1,1,7,4,10,55,down,0.5,-0.5,-0.5,,92.93607787496876,92.94152762496378,92.94152762496378,93.43203495896887,93.43203495896887,93.50418295897543,93.50418295897543,93.50418295897543,93.43759879202116,94.03566425002646,0,,,,,,,,716259,001,2025-08-14_16h17.39.902,tilt_staircase,2024.2.4,None,2025-08-14 16h17.49.994843 -0700,
,,,,,,,,,,,,,,,,,,,,,,,94.04175912495703,,,,,,,,,,,,,,,,,,,,,,,,,,,,,,,,,,,,,,,,,,,,,,,,,,,,,,,,,,,,,,posc_negs,30,15,15,-15,"[5, 2, 1, 0.5, 0.25, 0.1]",lin,1,1,7,1,10,56,up,0.5,-2.5,-2.5,-30,94.03630904201418,94.04175912495703,94.04175912495703,94.53203250002116,94.53203250002116,94.60443062498234,94.60443062498234,94.60443062498234,94.5377485420322,95.25019858404994,0,,,,,,,,716259,001,2025-08-14_16h17.39.902,tilt_staircase,2024.2.4,None,2025-08-14 16h17.49.994843 -0700,
,,,,,,,,,,,,,,,,,,,,,,,95.2541395840235,,,,,,,,,,,,,,,,,,,,,,,,,,,,,,,,,,,,,,,,,,,,,,,,,,,,,,,,,,,,,,negc_poss,30,-15,15,-15,"[5, 2, 1, 0.5, 0.25, 0.1]",lin,1,1,7,2,10,57,up,1,1,1,30,95.2505757920444,95.2541395840235,95.2541395840235,95.74764458404388,95.74764458404388,95.8185540420236,95.8185540420236,95.8185540420236,95.75204008398578,97.72066008404363,0,,,,,,,,716259,001,2025-08-14_16h17.39.902,tilt_staircase,2024.2.4,None,2025-08-14 16h17.49.994843 -0700,
,,,,,,,,,,,,,,,,,,,,,,,97.73110191698652,,,,,,,,,,,,,,,,,,,,,,,,,,,,,,,,,,,,,,,,,,,,,,,,,,,,,,,,,,,,,,posc_poss,30,15,15,-15,"[5, 2, 1, 0.5, 0.25, 0.1]",lin,1,1,7,3,10,58,up,0.1,0.35,0.35,30,97.72105154197197,97.73110191698652,97.73110191698652,98.21526058402378,98.21526058402378,98.28772104193922,98.28772104193922,98.29854887502734,98.22125270904507,98.75185708398931,0,,,,,,,,716259,001,2025-08-14_16h17.39.902,tilt_staircase,2024.2.4,None,2025-08-14 16h17.49.994843 -0700,
,,,,,,,,,,,,,,,,,,,,,,,98.75809966702946,,,,,,,,,,,,,,,,,,,,,,,,,,,,,,,,,,,,,,,,,,,,,,,,,,,,,,,,,,,,,,negc_negs,30,-15,15,-15,"[5, 2, 1, 0.5, 0.25, 0.1]",lin,1,1,7,0,10,59,up,0.25,-2.25,-2.25,-30,98.75250762503128,98.75809966702946,98.75809966702946,99.24827199999709,99.24827199999709,99.3215772920521,99.3215772920521,99.3215772920521,99.2534837089479,99.75145212502684,1,,,,,,,,716259,001,2025-08-14_16h17.39.902,tilt_staircase,2024.2.4,None,2025-08-14 16h17.49.994843 -0700,
,,,,,,,,,,,,,,,,,,,,,,,99.75682174996473,,,,,,,,,,,,,,,,,,,,,,,,,,,,,,,,,,,,,,,,,,,,,,,,,,,,,,,,,,,,,,negc_poss,30,-15,15,-15,"[5, 2, 1, 0.5, 0.25, 0.1]",lin,1,1,7,2,11,60,up,1,2,2,30,99.75207445898559,99.75682174996473,99.75682174996473,100.24808462499641,100.24808462499641,100.3205964169465,100.3205964169465,100.3205964169465,100.25380449998192,101.55741241702344,1,,,,,,,,716259,001,2025-08-14_16h17.39.902,tilt_staircase,2024.2.4,None,2025-08-14 16h17.49.994843 -0700,
,,,,,,,,,,,,,,,,,,,,,,,101.56441570899915,,,,,,,,,,,,,,,,,,,,,,,,,,,,,,,,,,,,,,,,,,,,,,,,,,,,,,,,,,,,,,negc_negs,30,-15,15,-15,"[5, 2, 1, 0.5, 0.25, 0.1]",lin,1,1,7,0,11,61,down,0.1,-2.35,-2.35,-30,101.55799558397848,101.56441570899915,101.56441570899915,102.05493733403273,102.05493733403273,102.13193675002549,102.13193675002549,102.13193675002549,102.05493733403273,102.77402462495957,0,,,,,,,,716259,001,2025-08-14_16h17.39.902,tilt_staircase,2024.2.4,None,2025-08-14 16h17.49.994843 -0700,
,,,,,,,,,,,,,,,,,,,,,,,102.78105750004761,,,,,,,,,,,,,,,,,,,,,,,,,,,,,,,,,,,,,,,,,,,,,,,,,,,,,,,,,,,,,,posc_poss,30,15,15,-15,"[5, 2, 1, 0.5, 0.25, 0.1]",lin,1,1,7,3,11,62,up,0.1,0.44999999999999996,0.44999999999999996,30,102.77465212496463,102.78105750004761,102.78105750004761,103.27180491702165,103.27180491702165,103.3484676249791,103.3484676249791,103.3484676249791,103.27180491702165,103.79317566694226,0,,,,,,,,716259,001,2025-08-14_16h17.39.902,tilt_staircase,2024.2.4,None,2025-08-14 16h17.49.994843 -0700,
,,,,,,,,,,,,,,,,,,,,,,,103.79765812493861,,,,,,,,,,,,,,,,,,,,,,,,,,,,,,,,,,,,,,,,,,,,,,,,,,,,,,,,,,,,,,posc_negs,30,15,15,-15,"[5, 2, 1, 0.5, 0.25, 0.1]",lin,1,1,7,1,11,63,up,0.5,-2.0,-2.0,-30,103.79379804199561,103.79765812493861,103.79765812493861,104.28857733402401,104.28857733402401,104.3652675000485,104.3652675000485,104.37112295895349,104.28857733402401,105.20947104203515,0,,,,,,,,716259,001,2025-08-14_16h17.39.902,tilt_staircase,2024.2.4,None,2025-08-14 16h17.49.994843 -0700,
,,,,,,,,,,,,,,,,,,,,,,,105.21426429203711,,,,,,,,,,,,,,,,,,,,,,,,,,,,,,,,,,,,,,,,,,,,,,,,,,,,,,,,,,,,,,negc_noss,30,-15,15,-15,"[5, 2, 1, 0.5, 0.25, 0.1]",lin,1,1,7,4,11,64,up,0.25,-0.25,-0.25,,105.21008070895914,105.21426429203711,105.21426429203711,105.70534387498628,105.70534387498628,105.78196429205127,105.78196429205127,105.7878525420092,105.70534387498628,106.2576647499809,0,,,,,,,,716259,001,2025-08-14_16h17.39.902,tilt_staircase,2024.2.4,None,2025-08-14 16h17.49.994843 -0700,
,,,,,,,,,,,,,,,,,,,,,,,106.26428050000686,,,,,,,,,,,,,,,,,,,,,,,,,,,,,,,,,,,,,,,,,,,,,,,,,,,,,,,,,,,,,,posc_noss,30,15,15,-15,"[5, 2, 1, 0.5, 0.25, 0.1]",lin,1,1,7,5,11,65,up,0.1,-0.65,-0.65,,106.25825099996291,106.26428050000686,106.26428050000686,106.75501633400563,106.75501633400563,106.83187741704751,106.83187741704751,106.83187741704751,106.75501633400563,107.30246058397461,0,,,,,,,,716259,001,2025-08-14_16h17.39.902,tilt_staircase,2024.2.4,None,2025-08-14 16h17.49.994843 -0700,
,,,,,,,,,,,,,,,,,,,,,,,107.30841724993661,,,,,,,,,,,,,,,,,,,,,,,,,,,,,,,,,,,,,,,,,,,,,,,,,,,,,,,,,,,,,,negc_negs,30,-15,15,-15,"[5, 2, 1, 0.5, 0.25, 0.1]",lin,1,1,7,0,12,66,up,0.1,-2.25,-2.25,-30,107.30308554205112,107.30841724993661,107.30841724993661,107.7985241250135,107.7985241250135,107.87115795898717,107.87115795898717,107.87115795898717,107.80468070902862,108.62671741703525,0,,,,,,,,716259,001,2025-08-14_16h17.39.902,tilt_staircase,2024.2.4,None,2025-08-14 16h17.49.994843 -0700,
,,,,,,,,,,,,,,,,,,,,,,,108.63094862503931,,,,,,,,,,,,,,,,,,,,,,,,,,,,,,,,,,,,,,,,,,,,,,,,,,,,,,,,,,,,,,posc_poss,30,15,15,-15,"[5, 2, 1, 0.5, 0.25, 0.1]",lin,1,1,7,3,12,67,up,0.1,0.5499999999999999,0.5499999999999999,30,108.62734600005206,108.63094862503931,108.63094862503931,109.12157641700469,109.12157641700469,109.19847287493758,109.19847287493758,109.20438024995383,109.12157641700469,113.2242199999746,0,,,,,,,,716259,001,2025-08-14_16h17.39.902,tilt_staircase,2024.2.4,None,2025-08-14 16h17.49.994843 -0700,
,,,,,,,,,,,,,,,,,,,,,,,113.23106891696807,,,,,,,,,,,,,,,,,,,,,,,,,,,,,,,,,,,,,,,,,,,,,,,,,,,,,,,,,,,,,,posc_negs,30,15,15,-15,"[5, 2, 1, 0.5, 0.25, 0.1]",lin,1,1,7,1,12,68,up,0.5,-1.5,-1.5,-30,113.22487566701602,113.23106891696807,113.23106891696807,113.72137816704344,113.72137816704344,113.79852666694205,113.79852666694205,113.79852666694205,113.72137816704344,114.40194920904469,0,,,,,,,,716259,001,2025-08-14_16h17.39.902,tilt_staircase,2024.2.4,None,2025-08-14 16h17.49.994843 -0700,
,,,,,,,,,,,,,,,,,,,,,,,114.4079941669479,,,,,,,,,,,,,,,,,,,,,,,,,,,,,,,,,,,,,,,,,,,,,,,,,,,,,,,,,,,,,,posc_noss,30,15,15,-15,"[5, 2, 1, 0.5, 0.25, 0.1]",lin,1,1,7,5,12,69,up,0.1,-0.55,-0.55,,114.40258004202042,114.4079941669479,114.4079941669479,114.89819450001232,114.89819450001232,114.97064766695257,114.97064766695257,114.97064766695257,114.90382775000762,115.4350130839739,0,,,,,,,,716259,001,2025-08-14_16h17.39.902,tilt_staircase,2024.2.4,None,2025-08-14 16h17.49.994843 -0700,
,,,,,,,,,,,,,,,,,,,,,,,115.44109554204624,,,,,,,,,,,,,,,,,,,,,,,,,,,,,,,,,,,,,,,,,,,,,,,,,,,,,,,,,,,,,,negc_noss,30,-15,15,-15,"[5, 2, 1, 0.5, 0.25, 0.1]",lin,1,1,7,4,12,70,up,0.25,0.0,0.0,,115.43561541696545,115.44109554204624,115.44109554204624,115.93190466694068,115.93190466694068,116.00405383401085,116.00405383401085,116.00405383401085,115.93809237494133,116.55771420896053,0,,,,,,,,716259,001,2025-08-14_16h17.39.902,tilt_staircase,2024.2.4,None,2025-08-14 16h17.49.994843 -0700,
,,,,,,,,,,,,,,,,,,,,,,,116.56432450003922,,,,,,,,,,,,,,,,,,,,,,,,,,,,,,,,,,,,,,,,,,,,,,,,,,,,,,,,,,,,,,negc_poss,30,-15,15,-15,"[5, 2, 1, 0.5, 0.25, 0.1]",lin,1,1,7,2,12,71,down,0.5,1.5,1.5,30,116.55835329194088,116.56432450003922,116.56432450003922,117.05506699997932,117.05506699997932,117.13190258399118,117.13190258399118,117.13190258399118,117.05506699997932,120.30174858402461,0,,,,,,,,716259,001,2025-08-14_16h17.39.902,tilt_staircase,2024.2.4,None,2025-08-14 16h17.49.994843 -0700,
,,,,,,,,,,,,,,,,,,,,,,,120.3079702090472,,,,,,,,,,,,,,,,,,,,,,,,,,,,,,,,,,,,,,,,,,,,,,,,,,,,,,,,,,,,,,negc_noss,30,-15,15,-15,"[5, 2, 1, 0.5, 0.25, 0.1]",lin,1,1,7,4,13,72,up,0.25,0.25,0.25,,120.30240416701417,120.3079702090472,120.3079702090472,120.7985158340307,120.7985158340307,120.87112679204438,120.87112679204438,120.87112679204438,120.80471945903264,121.90831237495877,0,,,,,,,,716259,001,2025-08-14_16h17.39.902,tilt_staircase,2024.2.4,None,2025-08-14 16h17.49.994843 -0700,
,,,,,,,,,,,,,,,,,,,,,,,121.91431820904836,,,,,,,,,,,,,,,,,,,,,,,,,,,,,,,,,,,,,,,,,,,,,,,,,,,,,,,,,,,,,,negc_poss,30,-15,15,-15,"[5, 2, 1, 0.5, 0.25, 0.1]",lin,1,1,7,2,13,73,up,0.25,1.75,1.75,30,121.90895529196132,121.91431820904836,121.91431820904836,122.40510837500915,122.40510837500915,122.48180358402897,122.48180358402897,122.48180358402897,122.40510837500915,123.96820958401076,0,,,,,,,,716259,001,2025-08-14_16h17.39.902,tilt_staircase,2024.2.4,None,2025-08-14 16h17.49.994843 -0700,
,,,,,,,,,,,,,,,,,,,,,,,123.9744625419844,,,,,,,,,,,,,,,,,,,,,,,,,,,,,,,,,,,,,,,,,,,,,,,,,,,,,,,,,,,,,,posc_noss,30,15,15,-15,"[5, 2, 1, 0.5, 0.25, 0.1]",lin,1,1,7,5,13,74,up,0.1,-0.45000000000000007,-0.45000000000000007,,123.96882112498861,123.9744625419844,123.9744625419844,124.46516891696956,124.46516891696956,124.53773991693743,124.53773991693743,124.53773991693743,124.47116862505209,124.935200292035,0,,,,,,,,716259,001,2025-08-14_16h17.39.902,tilt_staircase,2024.2.4,None,2025-08-14 16h17.49.994843 -0700,
,,,,,,,,,,,,,,,,,,,,,,,124.94153820897918,,,,,,,,,,,,,,,,,,,,,,,,,,,,,,,,,,,,,,,,,,,,,,,,,,,,,,,,,,,,,,negc_negs,30,-15,15,-15,"[5, 2, 1, 0.5, 0.25, 0.1]",lin,1,1,7,0,13,75,up,0.1,-2.15,-2.15,-30,124.93584691698197,124.94153820897918,124.94153820897918,125.4318106250139,125.4318106250139,125.50396124995314,125.50396124995314,125.50396124995314,125.43773816700559,126.07417991699185,0,,,,,,,,716259,001,2025-08-14_16h17.39.902,tilt_staircase,2024.2.4,None,2025-08-14 16h17.49.994843 -0700,
,,,,,,,,,,,,,,,,,,,,,,,126.0808249169495,,,,,,,,,,,,,,,,,,,,,,,,,,,,,,,,,,,,,,,,,,,,,,,,,,,,,,,,,,,,,,posc_poss,30,15,15,-15,"[5, 2, 1, 0.5, 0.25, 0.1]",lin,1,1,7,3,13,76,up,0.1,0.6499999999999999,0.6499999999999999,30,126.07480095897336,126.0808249169495,126.0808249169495,126.57148875005078,126.57148875005078,126.6485206669895,126.6485206669895,126.6485206669895,126.57148875005078,127.27368337498046,0,,,,,,,,716259,001,2025-08-14_16h17.39.902,tilt_staircase,2024.2.4,None,2025-08-14 16h17.49.994843 -0700,
,,,,,,,,,,,,,,,,,,,,,,,127.28100979200099,,,,,,,,,,,,,,,,,,,,,,,,,,,,,,,,,,,,,,,,,,,,,,,,,,,,,,,,,,,,,,posc_negs,30,15,15,-15,"[5, 2, 1, 0.5, 0.25, 0.1]",lin,1,1,7,1,13,77,up,0.5,-1.0,-1.0,-30,127.27421220904216,127.28100979200099,127.28100979200099,127.77095208398532,127.77095208398532,127.84845270903315,127.84845270903315,127.84845270903315,127.77095208398532,128.48976983397733,1,,,,,,,,716259,001,2025-08-14_16h17.39.902,tilt_staircase,2024.2.4,None,2025-08-14 16h17.49.994843 -0700,
,,,,,,,,,,,,,,,,,,,,,,,128.49849725002423,,,,,,,,,,,,,,,,,,,,,,,,,,,,,,,,,,,,,,,,,,,,,,,,,,,,,,,,,,,,,,posc_noss,30,15,15,-15,"[5, 2, 1, 0.5, 0.25, 0.1]",lin,1,1,7,5,14,78,up,0.1,-0.3500000000000001,-0.3500000000000001,,128.49033770896494,128.49849725002423,128.49849725002423,128.9885337089654,128.9885337089654,129.0651765000075,129.0651765000075,129.0651765000075,128.9885337089654,130.2735753339948,0,,,,,,,,716259,001,2025-08-14_16h17.39.902,tilt_staircase,2024.2.4,None,2025-08-14 16h17.49.994843 -0700,
,,,,,,,,,,,,,,,,,,,,,,,130.28109579195734,,,,,,,,,,,,,,,,,,,,,,,,,,,,,,,,,,,,,,,,,,,,,,,,,,,,,,,,,,,,,,posc_poss,30,15,15,-15,"[5, 2, 1, 0.5, 0.25, 0.1]",lin,1,1,7,3,14,79,up,0.1,0.7499999999999999,0.7499999999999999,30,130.27415037504397,130.28109579195734,130.28109579195734,130.7718625840498,130.7718625840498,130.8485372089781,130.8485372089781,130.8485372089781,130.7718625840498,131.31869487499353,0,,,,,,,,716259,001,2025-08-14_16h17.39.902,tilt_staircase,2024.2.4,None,2025-08-14 16h17.49.994843 -0700,
,,,,,,,,,,,,,,,,,,,,,,,131.32427391700912,,,,,,,,,,,,,,,,,,,,,,,,,,,,,,,,,,,,,,,,,,,,,,,,,,,,,,,,,,,,,,posc_negs,30,15,15,-15,"[5, 2, 1, 0.5, 0.25, 0.1]",lin,1,1,7,1,14,80,down,0.25,-1.25,-1.25,-30,131.3193075839663,131.32427391700912,131.32427391700912,131.81519170897081,131.81519170897081,131.88754858402535,131.88754858402535,131.88754858402535,131.82113695901353,135.39342424995266,0,,,,,,,,716259,001,2025-08-14_16h17.39.902,tilt_staircase,2024.2.4,None,2025-08-14 16h17.49.994843 -0700,
,,,,,,,,,,,,,,,,,,,,,,,135.39770529197995,,,,,,,,,,,,,,,,,,,,,,,,,,,,,,,,,,,,,,,,,,,,,,,,,,,,,,,,,,,,,,negc_noss,30,-15,15,-15,"[5, 2, 1, 0.5, 0.25, 0.1]",lin,1,1,7,4,14,81,up,0.25,0.5,0.5,,135.39406358404085,135.39770529197995,135.39770529197995,135.88830079196487,135.88830079196487,135.96513641695492,135.96513641695492,135.9710539589869,135.88830079196487,137.67398641700856,1,,,,,,,,716259,001,2025-08-14_16h17.39.902,tilt_staircase,2024.2.4,None,2025-08-14 16h17.49.994843 -0700,
,,,,,,,,,,,,,,,,,,,,,,,137.68086879199836,,,,,,,,,,,,,,,,,,,,,,,,,,,,,,,,,,,,,,,,,,,,,,,,,,,,,,,,,,,,,,negc_negs,30,-15,15,-15,"[5, 2, 1, 0.5, 0.25, 0.1]",lin,1,1,7,0,14,82,up,0.1,-2.05,-2.05,-30,137.6746165419463,137.68086879199836,137.68086879199836,138.17199158400763,138.17199158400763,138.2484407919692,138.2484407919692,138.2484407919692,138.17199158400763,138.8573540840298,0,,,,,,,,716259,001,2025-08-14_16h17.39.902,tilt_staircase,2024.2.4,None,2025-08-14 16h17.49.994843 -0700,
,,,,,,,,,,,,,,,,,,,,,,,138.86422058404423,,,,,,,,,,,,,,,,,,,,,,,,,,,,,,,,,,,,,,,,,,,,,,,,,,,,,,,,,,,,,,negc_poss,30,-15,15,-15,"[5, 2, 1, 0.5, 0.25, 0.1]",lin,1,1,7,2,14,83,up,0.25,2.0,2.0,30,138.8579783750465,138.86422058404423,138.86422058404423,139.35465337499045,139.35465337499045,139.4317518339958,139.4317518339958,139.4317518339958,139.35465337499045,140.14360212499741,0,,,,,,,,716259,001,2025-08-14_16h17.39.902,tilt_staircase,2024.2.4,None,2025-08-14 16h17.49.994843 -0700,
,,,,,,,,,,,,,,,,,,,,,,,140.1479324590182,,,,,,,,,,,,,,,,,,,,,,,,,,,,,,,,,,,,,,,,,,,,,,,,,,,,,,,,,,,,,,posc_negs,30,15,15,-15,"[5, 2, 1, 0.5, 0.25, 0.1]",lin,1,1,7,1,15,84,up,0.1,-1.15,-1.15,-30,140.14425574999768,140.1479324590182,140.1479324590182,140.63845808396582,140.63845808396582,140.7151208339492,140.7151208339492,140.72129795898218,140.63845808396582,142.990730584017,0,,,,,,,,716259,001,2025-08-14_16h17.39.902,tilt_staircase,2024.2.4,None,2025-08-14 16h17.49.994843 -0700,
,,,,,,,,,,,,,,,,,,,,,,,142.9976025839569,,,,,,,,,,,,,,,,,,,,,,,,,,,,,,,,,,,,,,,,,,,,,,,,,,,,,,,,,,,,,,posc_noss,30,15,15,-15,"[5, 2, 1, 0.5, 0.25, 0.1]",lin,1,1,7,5,15,85,up,0.1,-0.2500000000000001,-0.2500000000000001,,142.99130579200573,142.9976025839569,142.9976025839569,143.48798854195047,143.48798854195047,143.5650947500253,143.5650947500253,143.5650947500253,143.48798854195047,144.00682129198685,1,,,,,,,,716259,001,2025-08-14_16h17.39.902,tilt_staircase,2024.2.4,None,2025-08-14 16h17.49.994843 -0700,
,,,,,,,,,,,,,,,,,,,,,,,144.0142128339503,,,,,,,,,,,,,,,,,,,,,,,,,,,,,,,,,,,,,,,,,,,,,,,,,,,,,,,,,,,,,,negc_poss,30,-15,15,-15,"[5, 2, 1, 0.5, 0.25, 0.1]",lin,1,1,7,2,15,86,up,0.25,2.25,2.25,30,144.00743608397897,144.0142128339503,144.0142128339503,144.50465587503277,144.50465587503277,144.58175979193766,144.58175979193766,144.58175979193766,144.50465587503277,145.0848489999771,0,,,,,,,,716259,001,2025-08-14_16h17.39.902,tilt_staircase,2024.2.4,None,2025-08-14 16h17.49.994843 -0700,
,,,,,,,,,,,,,,,,,,,,,,,145.0908200419508,,,,,,,,,,,,,,,,,,,,,,,,,,,,,,,,,,,,,,,,,,,,,,,,,,,,,,,,,,,,,,posc_poss,30,15,15,-15,"[5, 2, 1, 0.5, 0.25, 0.1]",lin,1,1,7,3,15,87,up,0.1,0.8499999999999999,0.8499999999999999,30,145.08547112497035,145.0908200419508,145.0908200419508,145.5814440420363,145.5814440420363,145.6542220839765,145.6542220839765,145.6542220839765,145.586889334023,146.5412680839654,1,,,,,,,,716259,001,2025-08-14_16h17.39.902,tilt_staircase,2024.2.4,None,2025-08-14 16h17.49.994843 -0700,
,,,,,,,,,,,,,,,,,,,,,,,146.54746658401564,,,,,,,,,,,,,,,,,,,,,,,,,,,,,,,,,,,,,,,,,,,,,,,,,,,,,,,,,,,,,,negc_noss,30,-15,15,-15,"[5, 2, 1, 0.5, 0.25, 0.1]",lin,1,1,7,4,15,88,down,0.1,0.4,0.4,,146.54188762500416,146.54746658401564,146.54746658401564,147.0385364999529,147.0385364999529,147.11521587497555,147.11521587497555,147.11521587497555,147.0385364999529,153.37420516693965,0,,,,,,,,716259,001,2025-08-14_16h17.39.902,tilt_staircase,2024.2.4,None,2025-08-14 16h17.49.994843 -0700,
,,,,,,,,,,,,,,,,,,,,,,,153.38087033398915,,,,,,,,,,,,,,,,,,,,,,,,,,,,,,,,,,,,,,,,,,,,,,,,,,,,,,,,,,,,,,negc_negs,30,-15,15,-15,"[5, 2, 1, 0.5, 0.25, 0.1]",lin,1,1,7,0,15,89,up,0.1,-1.9499999999999997,-1.9499999999999997,-30,153.37485516699962,153.38087033398915,153.38087033398915,153.87185041699558,153.87185041699558,153.94841154199094,153.94841154199094,153.94841154199094,153.87185041699558,156.53493404202163,0,,,,,,,,716259,001,2025-08-14_16h17.39.902,tilt_staircase,2024.2.4,None,2025-08-14 16h17.49.994843 -0700,
,,,,,,,,,,,,,,,,,,,,,,,156.5412347089732,,,,,,,,,,,,,,,,,,,,,,,,,,,,,,,,,,,,,,,,,,,,,,,,,,,,,,,,,,,,,,posc_negs,30,15,15,-15,"[5, 2, 1, 0.5, 0.25, 0.1]",lin,1,1,7,1,16,90,up,0.1,-1.0499999999999998,-1.0499999999999998,-30,156.53558825002983,156.5412347089732,156.5412347089732,157.03180108394008,157.03180108394008,157.10424308397342,157.10424308397342,157.10424308397342,157.03734283393715,158.0346887500491,1,,,,,,,,716259,001,2025-08-14_16h17.39.902,tilt_staircase,2024.2.4,None,2025-08-14 16h17.49.994843 -0700,
,,,,,,,,,,,,,,,,,,,,,,,158.03968654200435,,,,,,,,,,,,,,,,,,,,,,,,,,,,,,,,,,,,,,,,,,,,,,,,,,,,,,,,,,,,,,negc_poss,30,-15,15,-15,"[5, 2, 1, 0.5, 0.25, 0.1]",lin,1,1,7,2,16,91,up,0.25,2.5,2.5,30,158.03525454201736,158.03968654200435,158.03968654200435,158.53078649996314,158.53078649996314,158.60195787495468,158.60195787495468,158.60195787495468,158.53501170896925,159.2017723750323,1,,,,,,,,716259,001,2025-08-14_16h17.39.902,tilt_staircase,2024.2.4,None,2025-08-14 16h17.49.994843 -0700,
,,,,,,,,,,,,,,,,,,,,,,,159.20756708399858,,,,,,,,,,,,,,,,,,,,,,,,,,,,,,,,,,,,,,,,,,,,,,,,,,,,,,,,,,,,,,posc_noss,30,15,15,-15,"[5, 2, 1, 0.5, 0.25, 0.1]",lin,1,1,7,5,16,92,down,0.1,-0.3500000000000001,-0.3500000000000001,,159.20253883395344,159.20756708399858,159.20756708399858,159.69809141696896,159.69809141696896,159.77094758395106,159.77094758395106,159.77094758395106,159.7038696249947,160.59070870897267,0,,,,,,,,716259,001,2025-08-14_16h17.39.902,tilt_staircase,2024.2.4,None,2025-08-14 16h17.49.994843 -0700,
,,,,,,,,,,,,,,,,,,,,,,,160.59745633404236,,,,,,,,,,,,,,,,,,,,,,,,,,,,,,,,,,,,,,,,,,,,,,,,,,,,,,,,,,,,,,negc_noss,30,-15,15,-15,"[5, 2, 1, 0.5, 0.25, 0.1]",lin,1,1,7,4,16,93,up,0.1,0.5,0.5,,160.59108708403073,160.59745633404236,160.59745633404236,161.08851062494796,161.08851062494796,161.1650692919502,161.1650692919502,161.1650692919502,161.08851062494796,163.82372412504628,1,,,,,,,,716259,001,2025-08-14_16h17.39.902,tilt_staircase,2024.2.4,None,2025-08-14 16h17.49.994843 -0700,
,,,,,,,,,,,,,,,,,,,,,,,163.83074591704644,,,,,,,,,,,,,,,,,,,,,,,,,,,,,,,,,,,,,,,,,,,,,,,,,,,,,,,,,,,,,,negc_negs,30,-15,15,-15,"[5, 2, 1, 0.5, 0.25, 0.1]",lin,1,1,7,0,16,94,up,0.1,-1.8499999999999996,-1.8499999999999996,-30,163.82428779196925,163.83074591704644,163.83074591704644,164.3215937500354,164.3215937500354,164.39765720895957,164.39765720895957,164.39765720895957,164.3215937500354,165.9834489589557,1,,,,,,,,716259,001,2025-08-14_16h17.39.902,tilt_staircase,2024.2.4,None,2025-08-14 16h17.49.994843 -0700,
,,,,,,,,,,,,,,,,,,,,,,,165.98781258403324,,,,,,,,,,,,,,,,,,,,,,,,,,,,,,,,,,,,,,,,,,,,,,,,,,,,,,,,,,,,,,posc_poss,30,15,15,-15,"[5, 2, 1, 0.5, 0.25, 0.1]",lin,1,1,7,3,16,95,down,0.1,0.7499999999999999,0.7499999999999999,30,165.9840901249554,165.98781258403324,165.98781258403324,166.48168674996123,166.48168674996123,166.55436962493695,166.55436962493695,166.55436962493695,166.48168674996123,167.1242909169523,0,,,,,,,,716259,001,2025-08-14_16h17.39.902,tilt_staircase,2024.2.4,None,2025-08-14 16h17.49.994843 -0700,
,,,,,,,,,,,,,,,,,,,,,,,167.13080754200928,,,,,,,,,,,,,,,,,,,,,,,,,,,,,,,,,,,,,,,,,,,,,,,,,,,,,,,,,,,,,,negc_negs,30,-15,15,-15,"[5, 2, 1, 0.5, 0.25, 0.1]",lin,1,1,7,0,17,96,down,0.1,-1.9499999999999997,-1.9499999999999997,-30,167.12491733394563,167.13080754200928,167.13080754200928,167.62176258396357,167.62176258396357,167.69841175002512,167.69841175002512,167.69841175002512,167.62176258396357,168.2064750000136,0,,,,,,,,716259,001,2025-08-14_16h17.39.902,tilt_staircase,2024.2.4,None,2025-08-14 16h17.49.994843 -0700,
,,,,,,,,,,,,,,,,,,,,,,,168.21443775005173,,,,,,,,,,,,,,,,,,,,,,,,,,,,,,,,,,,,,,,,,,,,,,,,,,,,,,,,,,,,,,posc_negs,30,15,15,-15,"[5, 2, 1, 0.5, 0.25, 0.1]",lin,1,1,7,1,17,97,down,0.1,-1.15,-1.15,-30,168.20709495898336,168.21443775005173,168.21443775005173,168.7050329169724,168.7050329169724,168.78171379200649,168.78171379200649,168.78171379200649,168.7050329169724,171.54090254195035,1,,,,,,,,716259,001,2025-08-14_16h17.39.902,tilt_staircase,2024.2.4,None,2025-08-14 16h17.49.994843 -0700,
,,,,,,,,,,,,,,,,,,,,,,,171.54739816696383,,,,,,,,,,,,,,,,,,,,,,,,,,,,,,,,,,,,,,,,,,,,,,,,,,,,,,,,,,,,,,negc_poss,30,-15,15,-15,"[5, 2, 1, 0.5, 0.25, 0.1]",lin,1,1,7,2,17,98,down,0.1,2.4,2.4,30,171.54153304197825,171.54739816696383,171.54739816696383,172.04080004198477,172.04080004198477,172.11886470904574,172.11886470904574,172.11886470904574,172.04080004198477,172.72361770900898,0,,,,,,,,716259,001,2025-08-14_16h17.39.902,tilt_staircase,2024.2.4,None,2025-08-14 16h17.49.994843 -0700,
,,,,,,,,,,,,,,,,,,,,,,,172.73102674994152,,,,,,,,,,,,,,,,,,,,,,,,,,,,,,,,,,,,,,,,,,,,,,,,,,,,,,,,,,,,,,posc_noss,30,15,15,-15,"[5, 2, 1, 0.5, 0.25, 0.1]",lin,1,1,7,5,17,99,up,0.1,-0.2500000000000001,-0.2500000000000001,,172.72422550001647,172.73102674994152,172.73102674994152,173.22175916703418,173.22175916703418,173.29848912497982,173.29848912497982,173.29848912497982,173.22175916703418,174.1237728749402,0,,,,,,,,716259,001,2025-08-14_16h17.39.902,tilt_staircase,2024.2.4,None,2025-08-14 16h17.49.994843 -0700,
,,,,,,,,,,,,,,,,,,,,,,,174.13074970897287,,,,,,,,,,,,,,,,,,,,,,,,,,,,,,,,,,,,,,,,,,,,,,,,,,,,,,,,,,,,,,posc_poss,30,15,15,-15,"[5, 2, 1, 0.5, 0.25, 0.1]",lin,1,1,7,3,17,100,up,0.1,0.8499999999999999,0.8499999999999999,30,174.1244137090398,174.13074970897287,174.13074970897287,174.62141279201023,174.62141279201023,174.69846016704105,174.69846016704105,174.69846016704105,174.62141279201023,175.15702641697135,0,,,,,,,,716259,001,2025-08-14_16h17.39.902,tilt_staircase,2024.2.4,None,2025-08-14 16h17.49.994843 -0700,
,,,,,,,,,,,,,,,,,,,,,,,175.1641947500175,,,,,,,,,,,,,,,,,,,,,,,,,,,,,,,,,,,,,,,,,,,,,,,,,,,,,,,,,,,,,,negc_noss,30,-15,15,-15,"[5, 2, 1, 0.5, 0.25, 0.1]",lin,1,1,7,4,17,101,down,0.1,0.4,0.4,,175.1576482920209,175.1641947500175,175.1641947500175,175.6549982089782,175.6549982089782,175.73168529197574,175.73168529197574,175.73168529197574,175.6549982089782,176.50193987495732,0,,,,,,,,716259,001,2025-08-14_16h17.39.902,tilt_staircase,2024.2.4,None,2025-08-14 16h17.49.994843 -0700,
,,,,,,,,,,,,,,,,,,,,,,,176.50649570894893,,,,,,,,,,,,,,,,,,,,,,,,,,,,,,,,,,,,,,,,,,,,,,,,,,,,,,,,,,,,,,negc_negs,30,-15,15,-15,"[5, 2, 1, 0.5, 0.25, 0.1]",lin,1,1,7,0,18,102,up,0.1,-1.8499999999999996,-1.8499999999999996,-30,176.50248208397534,176.50649570894893,176.50649570894893,176.99850979202893,176.99850979202893,177.0707831250038,177.0707831250038,177.0707831250038,177.0039846249856,177.6499922920484,0,,,,,,,,716259,001,2025-08-14_16h17.39.902,tilt_staircase,2024.2.4,None,2025-08-14 16h17.49.994843 -0700,
,,,,,,,,,,,,,,,,,,,,,,,177.65409416693728,,,,,,,,,,,,,,,,,,,,,,,,,,,,,,,,,,,,,,,,,,,,,,,,,,,,,,,,,,,,,,negc_noss,30,-15,15,-15,"[5, 2, 1, 0.5, 0.25, 0.1]",lin,1,1,7,4,18,103,up,0.1,0.5,0.5,,177.65060187503695,177.65409416693728,177.65409416693728,178.148284416995,178.148284416995,178.22118975000922,178.22118975000922,178.22118975000922,178.148284416995,179.68996633403003,1,,,,,,,,716259,001,2025-08-14_16h17.39.902,tilt_staircase,2024.2.4,None,2025-08-14 16h17.49.994843 -0700,
,,,,,,,,,,,,,,,,,,,,,,,179.69736966700293,,,,,,,,,,,,,,,,,,,,,,,,,,,,,,,,,,,,,,,,,,,,,,,,,,,,,,,,,,,,,,posc_poss,30,15,15,-15,"[5, 2, 1, 0.5, 0.25, 0.1]",lin,1,1,7,3,18,104,up,0.1,0.9499999999999998,0.9499999999999998,30,179.6906028749654,179.69736966700293,179.69736966700293,180.18809362500906,180.18809362500906,180.26497279200703,180.26497279200703,180.26497279200703,180.18809362500906,182.28522833401803,1,,,,,,,,716259,001,2025-08-14_16h17.39.902,tilt_staircase,2024.2.4,None,2025-08-14 16h17.49.994843 -0700,
,,,,,,,,,,,,,,,,,,,,,,,182.29160487500485,,,,,,,,,,,,,,,,,,,,,,,,,,,,,,,,,,,,,,,,,,,,,,,,,,,,,,,,,,,,,,posc_noss,30,15,15,-15,"[5, 2, 1, 0.5, 0.25, 0.1]",lin,1,1,7,5,18,105,up,0.1,-0.1500000000000001,-0.1500000000000001,,182.28591662494,182.29160487500485,182.29160487500485,182.7817600000417,182.7817600000417,182.85409995901864,182.85409995901864,182.85409995901864,182.78743604198098,183.47417225001846,0,,,,,,,,716259,001,2025-08-14_16h17.39.902,tilt_staircase,2024.2.4,None,2025-08-14 16h17.49.994843 -0700,
,,,,,,,,,,,,,,,,,,,,,,,183.48078687500674,,,,,,,,,,,,,,,,,,,,,,,,,,,,,,,,,,,,,,,,,,,,,,,,,,,,,,,,,,,,,,negc_poss,30,-15,15,-15,"[5, 2, 1, 0.5, 0.25, 0.1]",lin,1,1,7,2,18,106,up,0.1,2.5,2.5,30,183.47478845901787,183.48078687500674,183.48078687500674,183.97168504202273,183.97168504202273,184.0476994169876,184.0476994169876,184.0476994169876,183.97168504202273,184.9410589999752,0,,,,,,,,716259,001,2025-08-14_16h17.39.902,tilt_staircase,2024.2.4,None,2025-08-14 16h17.49.994843 -0700,
,,,,,,,,,,,,,,,,,,,,,,,184.94750954199117,,,,,,,,,,,,,,,,,,,,,,,,,,,,,,,,,,,,,,,,,,,,,,,,,,,,,,,,,,,,,,posc_negs,30,15,15,-15,"[5, 2, 1, 0.5, 0.25, 0.1]",lin,1,1,7,1,18,107,down,0.1,-1.25,-1.25,-30,184.94168933399487,184.94750954199117,184.94750954199117,185.43823850003537,185.43823850003537,185.5151613339549,185.5151613339549,185.5151613339549,185.43823850003537,187.0244952919893,1,,,,,,,,716259,001,2025-08-14_16h17.39.902,tilt_staircase,2024.2.4,None,2025-08-14 16h17.49.994843 -0700,
,,,,,,,,,,,,,,,,,,,,,,,187.0308107919991,,,,,,,,,,,,,,,,,,,,,,,,,,,,,,,,,,,,,,,,,,,,,,,,,,,,,,,,,,,,,,negc_poss,30,-15,15,-15,"[5, 2, 1, 0.5, 0.25, 0.1]",lin,1,1,7,2,19,108,up,0.1,2.6,2.6,30,187.0251925420016,187.0308107919991,187.0308107919991,187.52149729197845,187.52149729197845,187.59838812495582,187.59838812495582,187.59838812495582,187.52149729197845,188.20181654195767,1,,,,,,,,716259,001,2025-08-14_16h17.39.902,tilt_staircase,2024.2.4,None,2025-08-14 16h17.49.994843 -0700,
,,,,,,,,,,,,,,,,,,,,,,,188.20758370903786,,,,,,,,,,,,,,,,,,,,,,,,,,,,,,,,,,,,,,,,,,,,,,,,,,,,,,,,,,,,,,negc_noss,30,-15,15,-15,"[5, 2, 1, 0.5, 0.25, 0.1]",lin,1,1,7,4,19,109,down,0.1,0.4,0.4,,188.20246349996887,188.20758370903786,188.20758370903786,188.69838275003713,188.69838275003713,188.77077729196753,188.77077729196753,188.77077729196753,188.70377129199915,189.42356958403252,1,,,,,,,,716259,001,2025-08-14_16h17.39.902,tilt_staircase,2024.2.4,None,2025-08-14 16h17.49.994843 -0700,
,,,,,,,,,,,,,,,,,,,,,,,189.43069275002927,,,,,,,,,,,,,,,,,,,,,,,,,,,,,,,,,,,,,,,,,,,,,,,,,,,,,,,,,,,,,,posc_negs,30,15,15,-15,"[5, 2, 1, 0.5, 0.25, 0.1]",lin,1,1,7,1,19,110,down,0.1,-1.35,-1.35,-30,189.42419854202308,189.43069275002927,189.43069275002927,189.9217552089831,189.9217552089831,189.9984616249567,189.9984616249567,189.9984616249567,189.9217552089831,192.40201137494296,0,,,,,,,,716259,001,2025-08-14_16h17.39.902,tilt_staircase,2024.2.4,None,2025-08-14 16h17.49.994843 -0700,
,,,,,,,,,,,,,,,,,,,,,,,192.40827041701414,,,,,,,,,,,,,,,,,,,,,,,,,,,,,,,,,,,,,,,,,,,,,,,,,,,,,,,,,,,,,,posc_noss,30,15,15,-15,"[5, 2, 1, 0.5, 0.25, 0.1]",lin,1,1,7,5,19,111,up,0.1,-0.0500000000000001,-0.0500000000000001,,192.40265012497548,192.40827041701414,192.40827041701414,192.89801783394068,192.89801783394068,192.97074770904146,192.97074770904146,192.97074770904146,192.90333345904946,193.45184445905033,0,,,,,,,,716259,001,2025-08-14_16h17.39.902,tilt_staircase,2024.2.4,None,2025-08-14 16h17.49.994843 -0700,
,,,,,,,,,,,,,,,,,,,,,,,193.45797412504908,,,,,,,,,,,,,,,,,,,,,,,,,,,,,,,,,,,,,,,,,,,,,,,,,,,,,,,,,,,,,,posc_poss,30,15,15,-15,"[5, 2, 1, 0.5, 0.25, 0.1]",lin,1,1,7,3,19,112,down,0.1,0.8499999999999999,0.8499999999999999,30,193.45248145901132,193.45797412504908,193.45797412504908,193.94831433403306,193.94831433403306,194.02057399996556,194.02057399996556,194.02057399996556,193.95381883403752,194.73462875001132,0,,,,,,,,716259,001,2025-08-14_16h17.39.902,tilt_staircase,2024.2.4,None,2025-08-14 16h17.49.994843 -0700,
,,,,,,,,,,,,,,,,,,,,,,,194.73937312501948,,,,,,,,,,,,,,,,,,,,,,,,,,,,,,,,,,,,,,,,,,,,,,,,,,,,,,,,,,,,,,negc_negs,30,-15,15,-15,"[5, 2, 1, 0.5, 0.25, 0.1]",lin,1,1,7,0,19,113,up,0.1,-1.7499999999999996,-1.7499999999999996,-30,194.73521770897787,194.73937312501948,194.73937312501948,195.2317095840117,195.2317095840117,195.30442033393774,195.30442033393774,195.30442033393774,195.23754429200199,195.87332779204007,0,,,,,,,,716259,001,2025-08-14_16h17.39.902,tilt_staircase,2024.2.4,None,2025-08-14 16h17.49.994843 -0700,
,,,,,,,,,,,,,,,,,,,,,,,195.88107645895798,,,,,,,,,,,,,,,,,,,,,,,,,,,,,,,,,,,,,,,,,,,,,,,,,,,,,,,,,,,,,,posc_poss,30,15,15,-15,"[5, 2, 1, 0.5, 0.25, 0.1]",lin,1,1,7,3,20,114,up,0.1,0.9499999999999998,0.9499999999999998,30,195.8739392090356,195.88107645895798,195.88107645895798,196.3715657920111,196.3715657920111,196.44826454203576,196.44826454203576,196.44826454203576,196.3715657920111,196.90680829202756,0,,,,,,,,716259,001,2025-08-14_16h17.39.902,tilt_staircase,2024.2.4,None,2025-08-14 16h17.49.994843 -0700,
,,,,,,,,,,,,,,,,,,,,,,,196.91450783400796,,,,,,,,,,,,,,,,,,,,,,,,,,,,,,,,,,,,,,,,,,,,,,,,,,,,,,,,,,,,,,negc_noss,30,-15,15,-15,"[5, 2, 1, 0.5, 0.25, 0.1]",lin,1,1,7,4,20,115,down,0.1,0.30000000000000004,0.30000000000000004,,196.90737458399963,196.91450783400796,196.91450783400796,197.40457204193808,197.40457204193808,197.4816317500081,197.4816317500081,197.4816317500081,197.40457204193808,198.0070818340173,0,,,,,,,,716259,001,2025-08-14_16h17.39.902,tilt_staircase,2024.2.4,None,2025-08-14 16h17.49.994843 -0700,
,,,,,,,,,,,,,,,,,,,,,,,198.0140409170417,,,,,,,,,,,,,,,,,,,,,,,,,,,,,,,,,,,,,,,,,,,,,,,,,,,,,,,,,,,,,,posc_negs,30,15,15,-15,"[5, 2, 1, 0.5, 0.25, 0.1]",lin,1,1,7,1,20,116,up,0.1,-1.25,-1.25,-30,198.00770416704472,198.0140409170417,198.0140409170417,198.5049120419426,198.5049120419426,198.58160141704138,198.58160141704138,198.58160141704138,198.5049120419426,199.25727270904463,0,,,,,,,,716259,001,2025-08-14_16h17.39.902,tilt_staircase,2024.2.4,None,2025-08-14 16h17.49.994843 -0700,
,,,,,,,,,,,,,,,,,,,,,,,199.26405458396766,,,,,,,,,,,,,,,,,,,,,,,,,,,,,,,,,,,,,,,,,,,,,,,,,,,,,,,,,,,,,,negc_negs,30,-15,15,-15,"[5, 2, 1, 0.5, 0.25, 0.1]",lin,1,1,7,0,20,117,up,0.1,-1.6499999999999995,-1.6499999999999995,-30,199.25789895898197,199.26405458396766,199.26405458396766,199.75453425000887,199.75453425000887,199.8317436670186,199.8317436670186,199.8317436670186,199.75453425000887,201.3904415840516,1,,,,,,,,716259,001,2025-08-14_16h17.39.902,tilt_staircase,2024.2.4,None,2025-08-14 16h17.49.994843 -0700,
,,,,,,,,,,,,,,,,,,,,,,,201.39735554205254,,,,,,,,,,,,,,,,,,,,,,,,,,,,,,,,,,,,,,,,,,,,,,,,,,,,,,,,,,,,,,posc_noss,30,15,15,-15,"[5, 2, 1, 0.5, 0.25, 0.1]",lin,1,1,7,5,20,118,up,0.1,0.049999999999999906,0.049999999999999906,,201.39103724993765,201.39735554205254,201.39735554205254,201.88771262497175,201.88771262497175,201.9649428339908,201.9649428339908,201.9649428339908,201.88771262497175,202.557233583997,0,,,,,,,,716259,001,2025-08-14_16h17.39.902,tilt_staircase,2024.2.4,None,2025-08-14 16h17.49.994843 -0700,
,,,,,,,,,,,,,,,,,,,,,,,202.56403066695202,,,,,,,,,,,,,,,,,,,,,,,,,,,,,,,,,,,,,,,,,,,,,,,,,,,,,,,,,,,,,,negc_poss,30,-15,15,-15,"[5, 2, 1, 0.5, 0.25, 0.1]",lin,1,1,7,2,20,119,down,0.1,2.5,2.5,30,202.55785545904655,202.56403066695202,202.56403066695202,203.05447833403014,203.05447833403014,203.13159658398945,203.13159658398945,203.13159658398945,203.05447833403014,206.24296216701623,0,,,,,,,,716259,001,2025-08-14_16h17.39.902,tilt_staircase,2024.2.4,None,2025-08-14 16h17.49.994843 -0700,
,,,,,,,,,,,,,,,,,,,,,,,206.24739633395802,,,,,,,,,,,,,,,,,,,,,,,,,,,,,,,,,,,,,,,,,,,,,,,,,,,,,,,,,,,,,,negc_poss,30,-15,15,-15,"[5, 2, 1, 0.5, 0.25, 0.1]",lin,1,1,7,2,21,120,up,0.1,2.6,2.6,30,206.24361395894084,206.24739633395802,206.24739633395802,206.73858166695572,206.73858166695572,206.81499837501906,206.81499837501906,206.82096529204864,206.73858166695572,208.75732554204296,1,,,,,,,,716259,001,2025-08-14_16h17.39.902,tilt_staircase,2024.2.4,None,2025-08-14 16h17.49.994843 -0700,
,,,,,,,,,,,,,,,,,,,,,,,208.76401954202447,,,,,,,,,,,,,,,,,,,,,,,,,,,,,,,,,,,,,,,,,,,,,,,,,,,,,,,,,,,,,,negc_noss,30,-15,15,-15,"[5, 2, 1, 0.5, 0.25, 0.1]",lin,1,1,7,4,21,121,up,0.1,0.4,0.4,,208.7579413750209,208.76401954202447,208.76401954202447,209.25486812496092,209.25486812496092,209.33157620904967,209.33157620904967,209.33157620904967,209.25486812496092,210.18479333398864,0,,,,,,,,716259,001,2025-08-14_16h17.39.902,tilt_staircase,2024.2.4,None,2025-08-14 16h17.49.994843 -0700,
,,,,,,,,,,,,,,,,,,,,,,,210.1908059590496,,,,,,,,,,,,,,,,,,,,,,,,,,,,,,,,,,,,,,,,,,,,,,,,,,,,,,,,,,,,,,posc_poss,30,15,15,-15,"[5, 2, 1, 0.5, 0.25, 0.1]",lin,1,1,7,3,21,122,up,0.1,1.0499999999999998,1.0499999999999998,30,210.18541654199362,210.1908059590496,210.1908059590496,210.68129175005015,210.68129175005015,210.7542438750388,210.7542438750388,210.7542438750388,210.68671754200477,211.29057629196905,0,,,,,,,,716259,001,2025-08-14_16h17.39.902,tilt_staircase,2024.2.4,None,2025-08-14 16h17.49.994843 -0700,
,,,,,,,,,,,,,,,,,,,,,,,211.29736374993809,,,,,,,,,,,,,,,,,,,,,,,,,,,,,,,,,,,,,,,,,,,,,,,,,,,,,,,,,,,,,,posc_noss,30,15,15,-15,"[5, 2, 1, 0.5, 0.25, 0.1]",lin,1,1,7,5,21,123,up,0.1,0.1499999999999999,0.1499999999999999,,211.29117945895996,211.29736374993809,211.29736374993809,211.78830200002994,211.78830200002994,211.86499174998607,211.86499174998607,211.86499174998607,211.78830200002994,212.30775925004855,0,,,,,,,,716259,001,2025-08-14_16h17.39.902,tilt_staircase,2024.2.4,None,2025-08-14 16h17.49.994843 -0700,
,,,,,,,,,,,,,,,,,,,,,,,212.31401233398356,,,,,,,,,,,,,,,,,,,,,,,,,,,,,,,,,,,,,,,,,,,,,,,,,,,,,,,,,,,,,,posc_negs,30,15,15,-15,"[5, 2, 1, 0.5, 0.25, 0.1]",lin,1,1,7,1,21,124,up,0.1,-1.15,-1.15,-30,212.3083622920094,212.31401233398356,212.31401233398356,212.80481416697148,212.80481416697148,212.88162812497467,212.88162812497467,212.88162812497467,212.80481416697148,214.17407837498467,0,,,,,,,,716259,001,2025-08-14_16h17.39.902,tilt_staircase,2024.2.4,None,2025-08-14 16h17.49.994843 -0700,
,,,,,,,,,,,,,,,,,,,,,,,214.1807138749864,,,,,,,,,,,,,,,,,,,,,,,,,,,,,,,,,,,,,,,,,,,,,,,,,,,,,,,,,,,,,,negc_negs,30,-15,15,-15,"[5, 2, 1, 0.5, 0.25, 0.1]",lin,1,1,7,0,21,125,down,0.1,-1.7499999999999996,-1.7499999999999996,-30,214.17472354194615,214.1807138749864,214.1807138749864,214.67157787503675,214.67157787503675,214.7483066249406,214.7483066249406,214.7483066249406,214.67157787503675,215.18337574996985,1,,,,,,,,716259,001,2025-08-14_16h17.39.902,tilt_staircase,2024.2.4,None,2025-08-14 16h17.49.994843 -0700,
,,,,,,,,,,,,,,,,,,,,,,,215.18729962501675,,,,,,,,,,,,,,,,,,,,,,,,,,,,,,,,,,,,,,,,,,,,,,,,,,,,,,,,,,,,,,posc_poss,30,15,15,-15,"[5, 2, 1, 0.5, 0.25, 0.1]",lin,1,1,7,3,22,126,up,0.1,1.15,1.15,30,215.18379045894835,215.18729962501675,215.18729962501675,215.68064029200468,215.68064029200468,215.75127308396623,215.75127308396623,215.75127308396623,215.68479208403733,218.3683248340385,1,,,,,,,,716259,001,2025-08-14_16h17.39.902,tilt_staircase,2024.2.4,None,2025-08-14 16h17.49.994843 -0700,
,,,,,,,,,,,,,,,,,,,,,,,218.37448587501422,,,,,,,,,,,,,,,,,,,,,,,,,,,,,,,,,,,,,,,,,,,,,,,,,,,,,,,,,,,,,,negc_negs,30,-15,15,-15,"[5, 2, 1, 0.5, 0.25, 0.1]",lin,1,1,7,0,22,127,down,0.1,-1.8499999999999996,-1.8499999999999996,-30,218.3689544169465,218.37448587501422,218.37448587501422,218.8646870419616,218.8646870419616,218.93732966703828,218.93732966703828,218.93732966703828,218.87007816694677,219.67386929201894,0,,,,,,,,716259,001,2025-08-14_16h17.39.902,tilt_staircase,2024.2.4,None,2025-08-14 16h17.49.994843 -0700,
,,,,,,,,,,,,,,,,,,,,,,,219.68068208394106,,,,,,,,,,,,,,,,,,,,,,,,,,,,,,,,,,,,,,,,,,,,,,,,,,,,,,,,,,,,,,posc_noss,30,15,15,-15,"[5, 2, 1, 0.5, 0.25, 0.1]",lin,1,1,7,5,22,128,up,0.1,0.24999999999999992,0.24999999999999992,,219.67450474994257,219.68068208394106,219.68068208394106,220.17147920897696,220.17147920897696,220.24829929193947,220.24829929193947,220.24829929193947,220.17147920897696,220.90723254194017,0,,,,,,,,716259,001,2025-08-14_16h17.39.902,tilt_staircase,2024.2.4,None,2025-08-14 16h17.49.994843 -0700,
,,,,,,,,,,,,,,,,,,,,,,,220.91409012500662,,,,,,,,,,,,,,,,,,,,,,,,,,,,,,,,,,,,,,,,,,,,,,,,,,,,,,,,,,,,,,posc_negs,30,15,15,-15,"[5, 2, 1, 0.5, 0.25, 0.1]",lin,1,1,7,1,22,129,up,0.1,-1.0499999999999998,-1.0499999999999998,-30,220.90786762500647,220.91409012500662,220.91409012500662,221.40485112497117,221.40485112497117,221.48163545900024,221.48163545900024,221.48163545900024,221.40485112497117,222.43461520900019,0,,,,,,,,716259,001,2025-08-14_16h17.39.902,tilt_staircase,2024.2.4,None,2025-08-14 16h17.49.994843 -0700,
,,,,,,,,,,,,,,,,,,,,,,,222.44059429201297,,,,,,,,,,,,,,,,,,,,,,,,,,,,,,,,,,,,,,,,,,,,,,,,,,,,,,,,,,,,,,negc_noss,30,-15,15,-15,"[5, 2, 1, 0.5, 0.25, 0.1]",lin,1,1,7,4,22,130,up,0.1,0.5,0.5,,222.43521804199554,222.44059429201297,222.44059429201297,222.93127362499945,222.93127362499945,223.00350783404429,223.00350783404429,223.00350783404429,222.936741292011,224.1513804589631,1,,,,,,,,716259,001,2025-08-14_16h17.39.902,tilt_staircase,2024.2.4,None,2025-08-14 16h17.49.994843 -0700,
,,,,,,,,,,,,,,,,,,,,,,,224.15759241697378,,,,,,,,,,,,,,,,,,,,,,,,,,,,,,,,,,,,,,,,,,,,,,,,,,,,,,,,,,,,,,negc_poss,30,-15,15,-15,"[5, 2, 1, 0.5, 0.25, 0.1]",lin,1,1,7,2,22,131,down,0.1,2.5,2.5,30,224.15202895901166,224.15759241697378,224.15759241697378,224.6477905419888,224.6477905419888,224.72111291694455,224.72111291694455,224.72111291694455,224.65351737500168,225.60709337494336,1,,,,,,,,716259,001,2025-08-14_16h17.39.902,tilt_staircase,2024.2.4,None,2025-08-14 16h17.49.994843 -0700,
,,,,,,,,,,,,,,,,,,,,,,,225.61398958403151,,,,,,,,,,,,,,,,,,,,,,,,,,,,,,,,,,,,,,,,,,,,,,,,,,,,,,,,,,,,,,posc_poss,30,15,15,-15,"[5, 2, 1, 0.5, 0.25, 0.1]",lin,1,1,7,3,23,132,down,0.1,1.0499999999999998,1.0499999999999998,30,225.60771770903375,225.61398958403151,225.61398958403151,226.1044785840204,226.1044785840204,226.1815697089769,226.1815697089769,226.1815697089769,226.1044785840204,228.74059108400252,1,,,,,,,,716259,001,2025-08-14_16h17.39.902,tilt_staircase,2024.2.4,None,2025-08-14 16h17.49.994843 -0700,
,,,,,,,,,,,,,,,,,,,,,,,228.74732729198877,,,,,,,,,,,,,,,,,,,,,,,,,,,,,,,,,,,,,,,,,,,,,,,,,,,,,,,,,,,,,,negc_poss,30,-15,15,-15,"[5, 2, 1, 0.5, 0.25, 0.1]",lin,1,1,7,2,23,133,down,0.1,2.4,2.4,30,228.74124100001063,228.74732729198877,228.74732729198877,229.23789608397055,229.23789608397055,229.31506487494335,229.31506487494335,229.31506487494335,229.23789608397055,233.05733462504577,1,,,,,,,,716259,001,2025-08-14_16h17.39.902,tilt_staircase,2024.2.4,None,2025-08-14 16h17.49.994843 -0700,
,,,,,,,,,,,,,,,,,,,,,,,233.06393616704736,,,,,,,,,,,,,,,,,,,,,,,,,,,,,,,,,,,,,,,,,,,,,,,,,,,,,,,,,,,,,,negc_negs,30,-15,15,-15,"[5, 2, 1, 0.5, 0.25, 0.1]",lin,1,1,7,0,23,134,up,0.1,-1.7499999999999996,-1.7499999999999996,-30,233.05799116694834,233.06393616704736,233.06393616704736,233.55469591694418,233.55469591694418,233.63154533400666,233.63154533400666,233.63154533400666,233.55469591694418,234.90135633398313,0,,,,,,,,716259,001,2025-08-14_16h17.39.902,tilt_staircase,2024.2.4,None,2025-08-14 16h17.49.994843 -0700,
,,,,,,,,,,,,,,,,,,,,,,,234.90751987497788,,,,,,,,,,,,,,,,,,,,,,,,,,,,,,,,,,,,,,,,,,,,,,,,,,,,,,,,,,,,,,posc_noss,30,15,15,-15,"[5, 2, 1, 0.5, 0.25, 0.1]",lin,1,1,7,5,23,135,up,0.1,0.3499999999999999,0.3499999999999999,,234.90199704200495,234.90751987497788,234.90751987497788,235.39822670898866,235.39822670898866,235.47047912504058,235.47047912504058,235.47047912504058,235.40403987502214,237.5181665419368,0,,,,,,,,716259,001,2025-08-14_16h17.39.902,tilt_staircase,2024.2.4,None,2025-08-14 16h17.49.994843 -0700,
,,,,,,,,,,,,,,,,,,,,,,,237.5244285420049,,,,,,,,,,,,,,,,,,,,,,,,,,,,,,,,,,,,,,,,,,,,,,,,,,,,,,,,,,,,,,posc_negs,30,15,15,-15,"[5, 2, 1, 0.5, 0.25, 0.1]",lin,1,1,7,1,23,136,up,0.1,-0.9499999999999998,-0.9499999999999998,-30,237.51885870902333,237.5244285420049,237.5244285420049,238.01492091699038,238.01492091699038,238.08751587499864,238.08751587499864,238.08751587499864,238.02072637504898,239.19076933397446,1,,,,,,,,716259,001,2025-08-14_16h17.39.902,tilt_staircase,2024.2.4,None,2025-08-14 16h17.49.994843 -0700,
,,,,,,,,,,,,,,,,,,,,,,,239.1973652499728,,,,,,,,,,,,,,,,,,,,,,,,,,,,,,,,,,,,,,,,,,,,,,,,,,,,,,,,,,,,,,negc_noss,30,-15,15,-15,"[5, 2, 1, 0.5, 0.25, 0.1]",lin,1,1,7,4,23,137,down,0.1,0.4,0.4,,239.1914103749441,239.1973652499728,239.1973652499728,239.68816491693724,239.68816491693724,239.76502716704272,239.76502716704272,239.76502716704272,239.68816491693724,243.75209091696888,0,,,,,,,,716259,001,2025-08-14_16h17.39.902,tilt_staircase,2024.2.4,None,2025-08-14 16h17.49.994843 -0700,
,,,,,,,,,,,,,,,,,,,,,,,243.75831812503748,,,,,,,,,,,,,,,,,,,,,,,,,,,,,,,,,,,,,,,,,,,,,,,,,,,,,,,,,,,,,,negc_poss,30,-15,15,-15,"[5, 2, 1, 0.5, 0.25, 0.1]",lin,1,1,7,2,24,138,down,0.1,2.3,2.3,30,243.75283429201227,243.75831812503748,243.75831812503748,244.2481653339928,244.2481653339928,244.31993050000165,244.31993050000165,244.31993050000165,244.2540689590387,245.30146062502172,1,,,,,,,,716259,001,2025-08-14_16h17.39.902,tilt_staircase,2024.2.4,None,2025-08-14 16h17.49.994843 -0700,
,,,,,,,,,,,,,,,,,,,,,,,245.3075810839655,,,,,,,,,,,,,,,,,,,,,,,,,,,,,,,,,,,,,,,,,,,,,,,,,,,,,,,,,,,,,,negc_noss,30,-15,15,-15,"[5, 2, 1, 0.5, 0.25, 0.1]",lin,1,1,7,4,24,139,up,0.1,0.5,0.5,,245.30209091701545,245.3075810839655,245.3075810839655,245.79790816700552,245.79790816700552,245.87090916698799,245.87090916698799,245.87090916698799,245.80344787496142,246.3736696250271,1,,,,,,,,716259,001,2025-08-14_16h17.39.902,tilt_staircase,2024.2.4,None,2025-08-14 16h17.49.994843 -0700,
,,,,,,,,,,,,,,,,,,,,,,,246.3806011249544,,,,,,,,,,,,,,,,,,,,,,,,,,,,,,,,,,,,,,,,,,,,,,,,,,,,,,,,,,,,,,posc_noss,30,15,15,-15,"[5, 2, 1, 0.5, 0.25, 0.1]",lin,1,1,7,5,24,140,up,0.1,0.44999999999999996,0.44999999999999996,,246.3742957500508,246.3806011249544,246.3806011249544,246.87117141694762,246.87117141694762,246.94825945899356,246.94825945899356,246.94825945899356,246.87117141694762,248.2241000420181,0,,,,,,,,716259,001,2025-08-14_16h17.39.902,tilt_staircase,2024.2.4,None,2025-08-14 16h17.49.994843 -0700,
,,,,,,,,,,,,,,,,,,,,,,,248.23058900004253,,,,,,,,,,,,,,,,,,,,,,,,,,,,,,,,,,,,,,,,,,,,,,,,,,,,,,,,,,,,,,negc_negs,30,-15,15,-15,"[5, 2, 1, 0.5, 0.25, 0.1]",lin,1,1,7,0,24,141,up,0.1,-1.6499999999999995,-1.6499999999999995,-30,248.22467379202135,248.23058900004253,248.23058900004253,248.72106237499975,248.72106237499975,248.79812587494962,248.79812587494962,248.79812587494962,248.72106237499975,249.53457587503362,0,,,,,,,,716259,001,2025-08-14_16h17.39.902,tilt_staircase,2024.2.4,None,2025-08-14 16h17.49.994843 -0700,
,,,,,,,,,,,,,,,,,,,,,,,249.54067129199393,,,,,,,,,,,,,,,,,,,,,,,,,,,,,,,,,,,,,,,,,,,,,,,,,,,,,,,,,,,,,,posc_poss,30,15,15,-15,"[5, 2, 1, 0.5, 0.25, 0.1]",lin,1,1,7,3,24,142,down,0.1,0.9499999999999998,0.9499999999999998,30,249.53521129197907,249.54067129199393,249.54067129199393,250.0315617499873,250.0315617499873,250.10257608396932,250.10257608396932,250.10257608396932,250.03904425003566,257.71806033398025,1,,,,,,,,716259,001,2025-08-14_16h17.39.902,tilt_staircase,2024.2.4,None,2025-08-14 16h17.49.994843 -0700,
,,,,,,,,,,,,,,,,,,,,,,,257.72422737500165,,,,,,,,,,,,,,,,,,,,,,,,,,,,,,,,,,,,,,,,,,,,,,,,,,,,,,,,,,,,,,posc_negs,30,15,15,-15,"[5, 2, 1, 0.5, 0.25, 0.1]",lin,1,1,7,1,24,143,down,0.1,-1.0499999999999998,-1.0499999999999998,-30,257.7186681670137,257.72422737500165,257.72422737500165,258.21484604198486,258.21484604198486,258.2874226249987,258.2874226249987,258.2874226249987,258.2208285420202,262.3737869169563,1,,,,,,,,716259,001,2025-08-14_16h17.39.902,tilt_staircase,2024.2.4,None,2025-08-14 16h17.49.994843 -0700,
,,,,,,,,,,,,,,,,,,,,,,,262.3809919169871,,,,,,,,,,,,,,,,,,,,,,,,,,,,,,,,,,,,,,,,,,,,,,,,,,,,,,,,,,,,,,negc_noss,30,-15,15,-15,"[5, 2, 1, 0.5, 0.25, 0.1]",lin,1,1,7,4,25,144,down,0.1,0.4,0.4,,262.37470404198393,262.3809919169871,262.3809919169871,262.87138504197355,262.87138504197355,262.94818979199044,262.94818979199044,262.94818979199044,262.87138504197355,264.1014736669604,1,,,,,,,,716259,001,2025-08-14_16h17.39.902,tilt_staircase,2024.2.4,None,2025-08-14 16h17.49.994843 -0700,
,,,,,,,,,,,,,,,,,,,,,,,264.1079011670081,,,,,,,,,,,,,,,,,,,,,,,,,,,,,,,,,,,,,,,,,,,,,,,,,,,,,,,,,,,,,,negc_poss,30,-15,15,-15,"[5, 2, 1, 0.5, 0.25, 0.1]",lin,1,1,7,2,25,145,down,0.1,2.1999999999999997,2.1999999999999997,30,264.1023532920517,264.1079011670081,264.1079011670081,264.598149791942,264.598149791942,264.6708132500062,264.6708132500062,264.6708132500062,264.6039552920265,265.7568439169554,1,,,,,,,,716259,001,2025-08-14_16h17.39.902,tilt_staircase,2024.2.4,None,2025-08-14 16h17.49.994843 -0700,
,,,,,,,,,,,,,,,,,,,,,,,265.7638846250484,,,,,,,,,,,,,,,,,,,,,,,,,,,,,,,,,,,,,,,,,,,,,,,,,,,,,,,,,,,,,,posc_noss,30,15,15,-15,"[5, 2, 1, 0.5, 0.25, 0.1]",lin,1,1,7,5,25,146,up,0.1,0.5499999999999999,0.5499999999999999,,265.75751070899423,265.7638846250484,265.7638846250484,266.25468504196033,266.25468504196033,266.3316128749866,266.3316128749866,266.3316128749866,266.25468504196033,266.99048816703726,1,,,,,,,,716259,001,2025-08-14_16h17.39.902,tilt_staircase,2024.2.4,None,2025-08-14 16h17.49.994843 -0700,
,,,,,,,,,,,,,,,,,,,,,,,266.9972345420392,,,,,,,,,,,,,,,,,,,,,,,,,,,,,,,,,,,,,,,,,,,,,,,,,,,,,,,,,,,,,,posc_negs,30,15,15,-15,"[5, 2, 1, 0.5, 0.25, 0.1]",lin,1,1,7,1,25,147,down,0.1,-1.15,-1.15,-30,266.9911022919696,266.9972345420392,266.9972345420392,267.48817112494726,267.48817112494726,267.5648262089817,267.5648262089817,267.5648262089817,267.48817112494726,268.25756179203745,1,,,,,,,,716259,001,2025-08-14_16h17.39.902,tilt_staircase,2024.2.4,None,2025-08-14 16h17.49.994843 -0700,
,,,,,,,,,,,,,,,,,,,,,,,268.2640102090081,,,,,,,,,,,,,,,,,,,,,,,,,,,,,,,,,,,,,,,,,,,,,,,,,,,,,,,,,,,,,,negc_negs,30,-15,15,-15,"[5, 2, 1, 0.5, 0.25, 0.1]",lin,1,1,7,0,25,148,up,0.1,-1.5499999999999994,-1.5499999999999994,-30,268.2581999170361,268.2640102090081,268.2640102090081,268.75438658404164,268.75438658404164,268.8314934170339,268.8314934170339,268.8314934170339,268.75438658404164,270.25161729194224,1,,,,,,,,716259,001,2025-08-14_16h17.39.902,tilt_staircase,2024.2.4,None,2025-08-14 16h17.49.994843 -0700,
,,,,,,,,,,,,,,,,,,,,,,,270.25782854203135,,,,,,,,,,,,,,,,,,,,,,,,,,,,,,,,,,,,,,,,,,,,,,,,,,,,,,,,,,,,,,posc_poss,30,15,15,-15,"[5, 2, 1, 0.5, 0.25, 0.1]",lin,1,1,7,3,25,149,down,0.1,0.8499999999999999,0.8499999999999999,30,270.25226929201744,270.25782854203135,270.25782854203135,270.74791220901534,270.74791220901534,270.82077733404003,270.82077733404003,270.82077733404003,270.7532329999376,271.6070283340523,0,,,,,,,,716259,001,2025-08-14_16h17.39.902,tilt_staircase,2024.2.4,None,2025-08-14 16h17.49.994843 -0700,
,,,,,,,,,,,,,,,,,,,,,,,,,,,,,,,,,,,,,,,,,,,,,,,,,,,,,,,,,,,,,,,,,,,,,,,,,,,,,,,,,,,,,,,,,,,,,,,,,,,,,,,,,,,,,,,,,,271.6071268749656,271.6139088750351,271.6139088750351,272.7520326250233,left,1.1364835409913212,None,716259,001,2025-08-14_16h17.39.902,tilt_staircase,2024.2.4,None,2025-08-14 16h17.49.994843 -0700,
