center,surround,correct,thisN,thisTrialN,thisRepN,key_resp_3.keys,key_resp_3.corr,key_resp_3.rt,key_resp_3.duration,opacity,key_resp_4.keys,key_resp_4.corr,key_resp_4.rt,key_resp_4.duration,practice_no_time.thisRepN,practice_no_time.thisTrialN,practice_no_time.thisN,practice_no_time.thisIndex,practice_timed.thisRepN,practice_timed.thisTrialN,practice_timed.thisN,practice_timed.thisIndex,thisRow.t,notes,instr.started,text_5.started,key_resp_2.started,instr.stopped,key_resp_2.keys,key_resp_2.rt,key_resp_2.duration,instr2.started,text_6.started,key_resp_6.started,instr2.stopped,key_resp_6.keys,key_resp_6.rt,key_resp_6.duration,test.started,surround_practice_3.started,center_practice_3.started,key_resp_7.started,test.stopped,key_resp_7.keys,key_resp_7.rt,key_resp_7.duration,practice_trial.started,key_resp_3.started,surround_practice.started,center_practice.started,surround_practice.stopped,center_practice.stopped,text_11.started,practice_trial.stopped,practice_no_time.key_resp_3.keys,practice_no_time.key_resp_3.corr,practice_no_time.key_resp_3.rt,practice_no_time.key_resp_3.duration,practice_feedback.started,text_7.started,text_7.stopped,practice_feedback.stopped,instr3.started,text_8.started,key_resp_5.started,instr3.stopped,key_resp_5.keys,key_resp_5.rt,key_resp_5.duration,practice_trial_timed.started,key_resp_4.started,surround_practice_2.started,center_practice_2.started,surround_practice_2.stopped,center_practice_2.stopped,text_12.started,practice_trial_timed.stopped,practice_timed.key_resp_4.keys,practice_timed.key_resp_4.corr,practice_timed.key_resp_4.rt,practice_timed.key_resp_4.duration,start_instr.started,text_13.started,key_resp_8.started,start_instr.stopped,key_resp_8.keys,key_resp_8.rt,key_resp_8.duration,trials.label,trials.nReps,trials.startVal,trials.maxVal,trials.minVal,trials.stepSizes,trials.stepType,trials.nUp,trials.nDown,trials.nReversals,trials.thisIndex,trials.thisRepN,trials.thisN,trials.direction,trials.stepSize,trials.intensity,center_angle,surround_angle,trial.started,resp.started,surround_grating.started,center_grating.started,text_3.started,surround_grating.stopped,center_grating.stopped,trial.stopped,trials.response,end.started,text_4.started,key_resp.started,end.stopped,key_resp.keys,key_resp.rt,key_resp.duration,participant,session,date,expName,psychopyVersion,frameRate,expStart,
,,,,,,,,,,,,,,,,,,,,,,,,,0.012673666002228856,0.019133040914312005,0.019133040914312005,19.161151750013232,space,19.13333312503528,None,,,,,,,,,,,,,,,,,,,,,,,,,,,,,,,,,,,,,,,,,,,,,,,,,,,,,,,,,,,,,,,,,,,,,,,,,,,,,,,,,,,,,,,,,,,,730109,001,2025-08-15_12h13.30.959,tilt_staircase,2024.2.4,None,2025-08-15 12h13.38.075185 -0700,
,,,,,,,,,,,,,,,,,,,,,,,,,,,,,,,,19.16127920791041,19.184404624975286,19.184404624975286,20.650981041020714,space,1.4651786249596626,None,,,,,,,,,,,,,,,,,,,,,,,,,,,,,,,,,,,,,,,,,,,,,,,,,,,,,,,,,,,,,,,,,,,,,,,,,,,,,,,,,,,,,730109,001,2025-08-15_12h13.30.959,tilt_staircase,2024.2.4,None,2025-08-15 12h13.38.075185 -0700,
,,,,,,,,,,,,,,,,,,,,,,,,,,,,,,,,,,,,,,,20.65130641590804,20.661840415908955,20.661840415908955,20.661840415908955,21.61743529094383,left,0.9494473329978064,None,,,,,,,,,,,,,,,,,,,,,,,,,,,,,,,,,,,,,,,,,,,,,,,,,,,,,,,,,,,,,,,,,,,,,,,,,,,,,730109,001,2025-08-15_12h13.30.959,tilt_staircase,2024.2.4,None,2025-08-15 12h13.38.075185 -0700,
30,0,right,0,0,0,right,1,1.3863206249661744,None,,,,,,0,0,0,0,,,,,21.741824041004293,,,,,,,,,,,,,,,,,,,,,,,,21.633314749924466,21.741824041004293,22.122728457907215,22.122728457907215,23.116535207955167,23.116535207955167,23.116535207955167,23.130016290931962,right,1,1.3863206249661744,None,23.131970915943384,23.141656290972605,24.633201124961488,24.627158540999517,,,,,,,,,,,,,,,,,,,,,,,,,,,,,,,,,,,,,,,,,,,,,,,,,,,,,,,,,,,,,730109,001,2025-08-15_12h13.30.959,tilt_staircase,2024.2.4,None,2025-08-15 12h13.38.075185 -0700,
-30,0,left,1,1,0,left,1,0.9214153330540285,None,,,,,,0,1,1,1,,,,,24.633201124961488,,,,,,,,,,,,,,,,,,,,,,,,24.628240040969104,24.633201124961488,25.124887999962084,25.124887999962084,,,,25.56192749994807,left,1,0.9214153330540285,None,25.56206879101228,25.56938145798631,27.065041165915318,27.0596097499365,,,,,,,,,,,,,,,,,,,,,,,,,,,,,,,,,,,,,,,,,,,,,,,,,,,,,,,,,,,,,730109,001,2025-08-15_12h13.30.959,tilt_staircase,2024.2.4,None,2025-08-15 12h13.38.075185 -0700,
30,60,right,2,2,0,right,1,0.8787032500840724,None,,,,,,0,2,2,2,,,,,27.065041165915318,,,,,,,,,,,,,,,,,,,,,,,,27.06078262499068,27.065041165915318,27.5584944159491,27.5584944159491,,,,27.954375125002116,right,1,0.8787032500840724,None,27.95447337499354,27.958948832936585,29.449637040961534,29.44365437491797,,,,,,,,,,,,,,,,,,,,,,,,,,,,,,,,,,,,,,,,,,,,,,,,,,,,,,,,,,,,,730109,001,2025-08-15_12h13.30.959,tilt_staircase,2024.2.4,None,2025-08-15 12h13.38.075185 -0700,
-30,-60,left,3,3,0,left,1,0.8467230000533164,None,,,,,,0,3,3,3,,,,,29.449637040961534,,,,,,,,,,,,,,,,,,,,,,,,29.44467649993021,29.449637040961534,29.951861958019435,29.951861958019435,,,,30.300896207918413,left,1,0.8467230000533164,None,30.301009957911447,30.30821833293885,31.801509249955416,31.793971207924187,,,,,,,,,,,,,,,,,,,,,,,,,,,,,,,,,,,,,,,,,,,,,,,,,,,,,,,,,,,,,730109,001,2025-08-15_12h13.30.959,tilt_staircase,2024.2.4,None,2025-08-15 12h13.38.075185 -0700,
,,,,,,,,,,,,,,,,,,,,,,,,,,,,,,,,,,,,,,,,,,,,,,,,,,,,,,,,,,,,,,,31.794112249976024,31.801509249955416,31.801509249955416,32.0983902500011,space,0.2926670419983566,None,,,,,,,,,,,,,,,,,,,,,,,,,,,,,,,,,,,,,,,,,,,,,,,,,,,,,,730109,001,2025-08-15_12h13.30.959,tilt_staircase,2024.2.4,None,2025-08-15 12h13.38.075185 -0700,
-30,-60,left,0,0,0,,,,,100,left,1,0.9161778329871595,None,,,,,0,0,0,0,32.11368308297824,,,,,,,,,,,,,,,,,,,,,,,,,,,,,,,,,,,,33.03382866596803,33.04150095791556,34.532569415983744,34.527313707978465,,,,,,,,32.10648937500082,32.11368308297824,32.59577579097822,32.59577579097822,32.66347099991981,32.66347099991981,32.67517824994866,33.03371070791036,left,1,0.9161778329871595,None,,,,,,,,,,,,,,,,,,,,,,,,,,,,,,,,,,,,,,,,,,730109,001,2025-08-15_12h13.30.959,tilt_staircase,2024.2.4,None,2025-08-15 12h13.38.075185 -0700,
-30,0,left,1,1,0,,,,,100,left,1,0.9447227090131491,None,,,,,0,1,1,1,34.532569415983744,,,,,,,,,,,,,,,,,,,,,,,,,,,,,,,,,,,,35.48877958301455,35.50890983291902,,36.9928959159879,,,,,,,,34.52785508299712,34.532569415983744,35.03494870790746,35.03494870790746,35.109216665965505,35.109216665965505,35.109216665965505,35.48865624994505,left,1,0.9447227090131491,None,,,,,,,,,,,,,,,,,,,,,,,,,,,,,,,,,,,,,,,,,,730109,001,2025-08-15_12h13.30.959,tilt_staircase,2024.2.4,None,2025-08-15 12h13.38.075185 -0700,
30,60,right,2,2,0,,,,,100,right,1,0.8116310420446098,None,,,,,0,2,2,2,36.99886383290868,,,,,,,,,,,,,,,,,,,,,,,,,,,,,,,,,,,,37.81625716597773,37.824918582919054,39.31713466590736,39.31080508301966,,,,,,,,36.99358095799107,36.99886383290868,37.48483412491623,37.48483412491623,37.55995612498373,37.55995612498373,37.56611174996942,37.81613308296073,right,1,0.8116310420446098,None,,,,,,,,,,,,,,,,,,,,,,,,,,,,,,,,,,,,,,,,,,730109,001,2025-08-15_12h13.30.959,tilt_staircase,2024.2.4,None,2025-08-15 12h13.38.075185 -0700,
30,0,right,3,3,0,,,,,100,right,1,0.993418209021911,None,,,,,0,3,3,3,39.31713466590736,,,,,,,,,,,,,,,,,,,,,,,,,,,,,,,,,,,,40.321066165925004,40.32548337499611,41.81574254098814,41.810240499908105,,,,,,,,39.31141858291812,39.31713466590736,39.80817416601349,39.80817416601349,39.88195783295669,39.88195783295669,39.89303554093931,40.32095704099629,right,1,0.993418209021911,None,,,,,,,,,,,,,,,,,,,,,,,,,,,,,,,,,,,,,,,,,,730109,001,2025-08-15_12h13.30.959,tilt_staircase,2024.2.4,None,2025-08-15 12h13.38.075185 -0700,
-30,69,left,4,4,0,,,,,0,left,1,0.8965684999711812,None,,,,,0,4,4,4,41.81574254098814,,,,,,,,,,,,,,,,,,,,,,,,,,,,,,,,,,,,42.71728658291977,42.725003083003685,44.215430165990256,44.21021370799281,,,,,,,,41.81083049997687,41.81574254098814,42.316918540978804,42.316918540978804,42.39260016591288,42.39260016591288,42.39859695790801,42.717171374941245,left,1,0.8965684999711812,None,,,,,,,,,,,,,,,,,,,,,,,,,,,,,,,,,,,,,,,,,,730109,001,2025-08-15_12h13.30.959,tilt_staircase,2024.2.4,None,2025-08-15 12h13.38.075185 -0700,
30,69,right,5,5,0,,,,,0,right,1,0.7999219170305878,None,,,,,0,5,5,5,44.215430165990256,,,,,,,,,,,,,,,,,,,,,,,,,,,,,,,,,,,,45.01761362492107,45.0247427909635,46.517433624947444,46.51036574994214,,,,,,,,44.21067616599612,44.215430165990256,44.71531254099682,44.71531254099682,44.79179895797279,44.79179895797279,44.79179895797279,45.017484374926426,right,1,0.7999219170305878,None,,,,,,,,,,,,,,,,,,,,,,,,,,,,,,,,,,,,,,,,,,730109,001,2025-08-15_12h13.30.959,tilt_staircase,2024.2.4,None,2025-08-15 12h13.38.075185 -0700,
,,,,,,,,,,,,,,,,,,,,,,,,,,,,,,,,,,,,,,,,,,,,,,,,,,,,,,,,,,,,,,,,,,,,,,,,,,,,,,,,,,46.51052591600455,46.517433624947444,46.517433624947444,47.10085674992297,space,0.580931167001836,None,,,,,,,,,,,,,,,,,,,,,,,,,,,,,,,,,,,730109,001,2025-08-15_12h13.30.959,tilt_staircase,2024.2.4,None,2025-08-15 12h13.38.075185 -0700,
,,,,,,,,,,,,,,,,,,,,,,,47.23068512498867,,,,,,,,,,,,,,,,,,,,,,,,,,,,,,,,,,,,,,,,,,,,,,,,,,,,,,,,,,,,,,,,,,posc_poss,30,15,15,-15,"[5, 2, 1, 0.5]",lin,1,1,8,3,1,0,start,5,15,15,30,47.22532995801885,47.23068512498867,47.60765854094643,47.60765854094643,47.67507687502075,47.67917204101104,47.67917204101104,48.06130158295855,1,,,,,,,,730109,001,2025-08-15_12h13.30.959,tilt_staircase,2024.2.4,None,2025-08-15 12h13.38.075185 -0700,
,,,,,,,,,,,,,,,,,,,,,,,48.06917287490796,,,,,,,,,,,,,,,,,,,,,,,,,,,,,,,,,,,,,,,,,,,,,,,,,,,,,,,,,,,,,,,,,,posc_noss,30,15,15,-15,"[5, 2, 1, 0.5]",lin,1,1,8,5,1,1,start,5,15,15,,48.06242799991742,48.06917287490796,48.558173915953375,48.558173915953375,48.632544290972874,48.632544290972874,48.632544290972874,49.26081854093354,1,,,,,,,,730109,001,2025-08-15_12h13.30.959,tilt_staircase,2024.2.4,None,2025-08-15 12h13.38.075185 -0700,
,,,,,,,,,,,,,,,,,,,,,,,49.267649707966484,,,,,,,,,,,,,,,,,,,,,,,,,,,,,,,,,,,,,,,,,,,,,,,,,,,,,,,,,,,,,,,,,,posc_negs,30,15,15,-15,"[5, 2, 1, 0.5]",lin,1,1,8,1,1,2,start,5,15,15,-30,49.26186745800078,49.267649707966484,49.75921299995389,49.75921299995389,49.83226612501312,49.83226612501312,49.83226612501312,50.3452744159149,1,,,,,,,,730109,001,2025-08-15_12h13.30.959,tilt_staircase,2024.2.4,None,2025-08-15 12h13.38.075185 -0700,
,,,,,,,,,,,,,,,,,,,,,,,50.35380908299703,,,,,,,,,,,,,,,,,,,,,,,,,,,,,,,,,,,,,,,,,,,,,,,,,,,,,,,,,,,,,,,,,,negc_negs,30,-15,15,-15,"[5, 2, 1, 0.5]",lin,1,1,8,0,1,3,start,5,-15,-15,-30,50.3469805829227,50.35380908299703,50.84167458291631,50.84167458291631,50.91385024995543,50.91385024995543,50.91385024995543,51.328783624921925,0,,,,,,,,730109,001,2025-08-15_12h13.30.959,tilt_staircase,2024.2.4,None,2025-08-15 12h13.38.075185 -0700,
,,,,,,,,,,,,,,,,,,,,,,,51.33753595792223,,,,,,,,,,,,,,,,,,,,,,,,,,,,,,,,,,,,,,,,,,,,,,,,,,,,,,,,,,,,,,,,,,negc_noss,30,-15,15,-15,"[5, 2, 1, 0.5]",lin,1,1,8,4,1,4,start,5,-15,-15,,51.33012112497818,51.33753595792223,51.82483991596382,51.82483991596382,51.8996245409362,51.8996245409362,51.8996245409362,52.25047799991444,0,,,,,,,,730109,001,2025-08-15_12h13.30.959,tilt_staircase,2024.2.4,None,2025-08-15 12h13.38.075185 -0700,
,,,,,,,,,,,,,,,,,,,,,,,52.25880591594614,,,,,,,,,,,,,,,,,,,,,,,,,,,,,,,,,,,,,,,,,,,,,,,,,,,,,,,,,,,,,,,,,,negc_poss,30,-15,15,-15,"[5, 2, 1, 0.5]",lin,1,1,8,2,1,5,start,5,-15,-15,30,52.25153958296869,52.25880591594614,52.75151095795445,52.75151095795445,52.826278290944174,52.826278290944174,52.826278290944174,53.22728912497405,0,,,,,,,,730109,001,2025-08-15_12h13.30.959,tilt_staircase,2024.2.4,None,2025-08-15 12h13.38.075185 -0700,
,,,,,,,,,,,,,,,,,,,,,,,53.235590416006744,,,,,,,,,,,,,,,,,,,,,,,,,,,,,,,,,,,,,,,,,,,,,,,,,,,,,,,,,,,,,,,,,,posc_negs,30,15,15,-15,"[5, 2, 1, 0.5]",lin,1,1,8,1,2,6,down,5,10,10,-30,53.2285587079823,53.235590416006744,53.71805862500332,53.71805862500332,53.799065207946114,53.79310320795048,53.79310320795048,54.144991750014015,1,,,,,,,,730109,001,2025-08-15_12h13.30.959,tilt_staircase,2024.2.4,None,2025-08-15 12h13.38.075185 -0700,
,,,,,,,,,,,,,,,,,,,,,,,54.15376104100142,,,,,,,,,,,,,,,,,,,,,,,,,,,,,,,,,,,,,,,,,,,,,,,,,,,,,,,,,,,,,,,,,,negc_noss,30,-15,15,-15,"[5, 2, 1, 0.5]",lin,1,1,8,4,2,7,up,5,-10,-10,,54.146781499963254,54.15376104100142,54.64154045796022,54.64154045796022,54.715819041011855,54.715819041011855,54.715819041011855,55.094930707942694,0,,,,,,,,730109,001,2025-08-15_12h13.30.959,tilt_staircase,2024.2.4,None,2025-08-15 12h13.38.075185 -0700,
,,,,,,,,,,,,,,,,,,,,,,,55.10259779100306,,,,,,,,,,,,,,,,,,,,,,,,,,,,,,,,,,,,,,,,,,,,,,,,,,,,,,,,,,,,,,,,,,posc_poss,30,15,15,-15,"[5, 2, 1, 0.5]",lin,1,1,8,3,2,8,down,5,10,10,30,55.09593750000931,55.10259779100306,55.59148241591174,55.59148241591174,55.66584375000093,55.66584375000093,55.66584375000093,56.036737332935445,1,,,,,,,,730109,001,2025-08-15_12h13.30.959,tilt_staircase,2024.2.4,None,2025-08-15 12h13.38.075185 -0700,
,,,,,,,,,,,,,,,,,,,,,,,56.04251512500923,,,,,,,,,,,,,,,,,,,,,,,,,,,,,,,,,,,,,,,,,,,,,,,,,,,,,,,,,,,,,,,,,,negc_poss,30,-15,15,-15,"[5, 2, 1, 0.5]",lin,1,1,8,2,2,9,up,5,-10,-10,30,56.038088082917966,56.04251512500923,56.53482970793266,56.53482970793266,56.61583504092414,56.60968074994162,56.60968074994162,57.01212545798626,0,,,,,,,,730109,001,2025-08-15_12h13.30.959,tilt_staircase,2024.2.4,None,2025-08-15 12h13.38.075185 -0700,
,,,,,,,,,,,,,,,,,,,,,,,57.02054670790676,,,,,,,,,,,,,,,,,,,,,,,,,,,,,,,,,,,,,,,,,,,,,,,,,,,,,,,,,,,,,,,,,,negc_negs,30,-15,15,-15,"[5, 2, 1, 0.5]",lin,1,1,8,0,2,10,up,5,-10,-10,-30,57.013687582919374,57.02054670790676,57.50944624992553,57.50944624992553,57.57968445797451,57.57968445797451,57.57968445797451,58.437114832922816,0,,,,,,,,730109,001,2025-08-15_12h13.30.959,tilt_staircase,2024.2.4,None,2025-08-15 12h13.38.075185 -0700,
,,,,,,,,,,,,,,,,,,,,,,,58.44249516597483,,,,,,,,,,,,,,,,,,,,,,,,,,,,,,,,,,,,,,,,,,,,,,,,,,,,,,,,,,,,,,,,,,posc_noss,30,15,15,-15,"[5, 2, 1, 0.5]",lin,1,1,8,5,2,11,down,5,10,10,,58.438084749970585,58.44249516597483,58.934713332913816,58.934713332913816,59.015873582917266,59.0092590409331,59.0092590409331,59.39481012499891,1,,,,,,,,730109,001,2025-08-15_12h13.30.959,tilt_staircase,2024.2.4,None,2025-08-15 12h13.38.075185 -0700,
,,,,,,,,,,,,,,,,,,,,,,,59.40323120797984,,,,,,,,,,,,,,,,,,,,,,,,,,,,,,,,,,,,,,,,,,,,,,,,,,,,,,,,,,,,,,,,,,posc_negs,30,15,15,-15,"[5, 2, 1, 0.5]",lin,1,1,8,1,3,12,down,5,5,5,-30,59.396420707926154,59.40323120797984,59.8914555410156,59.8914555410156,59.96511150000151,59.96511150000151,59.96511150000151,60.39554449997377,1,,,,,,,,730109,001,2025-08-15_12h13.30.959,tilt_staircase,2024.2.4,None,2025-08-15 12h13.38.075185 -0700,
,,,,,,,,,,,,,,,,,,,,,,,60.40356254100334,,,,,,,,,,,,,,,,,,,,,,,,,,,,,,,,,,,,,,,,,,,,,,,,,,,,,,,,,,,,,,,,,,negc_noss,30,-15,15,-15,"[5, 2, 1, 0.5]",lin,1,1,8,4,3,13,up,5,-5,-5,,60.39684508298524,60.40356254100334,60.89146583294496,60.89146583294496,60.96588891593274,60.96588891593274,60.96588891593274,61.32696649990976,0,,,,,,,,730109,001,2025-08-15_12h13.30.959,tilt_staircase,2024.2.4,None,2025-08-15 12h13.38.075185 -0700,
,,,,,,,,,,,,,,,,,,,,,,,61.33386141597293,,,,,,,,,,,,,,,,,,,,,,,,,,,,,,,,,,,,,,,,,,,,,,,,,,,,,,,,,,,,,,,,,,posc_poss,30,15,15,-15,"[5, 2, 1, 0.5]",lin,1,1,8,3,3,14,down,5,5,5,30,61.32780616590753,61.33386141597293,61.81832437496632,61.81832437496632,61.89942862500902,61.89262229099404,61.89262229099404,62.36130508291535,1,,,,,,,,730109,001,2025-08-15_12h13.30.959,tilt_staircase,2024.2.4,None,2025-08-15 12h13.38.075185 -0700,
,,,,,,,,,,,,,,,,,,,,,,,62.36918108293321,,,,,,,,,,,,,,,,,,,,,,,,,,,,,,,,,,,,,,,,,,,,,,,,,,,,,,,,,,,,,,,,,,negc_negs,30,-15,15,-15,"[5, 2, 1, 0.5]",lin,1,1,8,0,3,15,up,5,-5,-5,-30,62.36231766594574,62.36918108293321,62.8582192909671,62.8582192909671,62.932630124967545,62.932630124967545,62.932630124967545,63.67935095797293,0,,,,,,,,730109,001,2025-08-15_12h13.30.959,tilt_staircase,2024.2.4,None,2025-08-15 12h13.38.075185 -0700,
,,,,,,,,,,,,,,,,,,,,,,,63.68778570799623,,,,,,,,,,,,,,,,,,,,,,,,,,,,,,,,,,,,,,,,,,,,,,,,,,,,,,,,,,,,,,,,,,negc_poss,30,-15,15,-15,"[5, 2, 1, 0.5]",lin,1,1,8,2,3,16,up,5,-5,-5,30,63.680662332917564,63.68778570799623,64.17552841594443,64.17552841594443,64.2484261249192,64.2484261249192,64.2484261249192,64.67114624998067,0,,,,,,,,730109,001,2025-08-15_12h13.30.959,tilt_staircase,2024.2.4,None,2025-08-15 12h13.38.075185 -0700,
,,,,,,,,,,,,,,,,,,,,,,,64.69263066595886,,,,,,,,,,,,,,,,,,,,,,,,,,,,,,,,,,,,,,,,,,,,,,,,,,,,,,,,,,,,,,,,,,posc_noss,30,15,15,-15,"[5, 2, 1, 0.5]",lin,1,1,8,5,3,17,down,5,5,5,,64.67211245791987,64.69263066595886,65.16714708297513,65.16714708297513,65.24904320796486,65.24305541592184,65.24305541592184,65.66158199997153,1,,,,,,,,730109,001,2025-08-15_12h13.30.959,tilt_staircase,2024.2.4,None,2025-08-15 12h13.38.075185 -0700,
,,,,,,,,,,,,,,,,,,,,,,,65.6698890409898,,,,,,,,,,,,,,,,,,,,,,,,,,,,,,,,,,,,,,,,,,,,,,,,,,,,,,,,,,,,,,,,,,negc_poss,30,-15,15,-15,"[5, 2, 1, 0.5]",lin,1,1,8,2,4,18,up,5,0,0,30,65.66307137499098,65.6698890409898,66.15843429102097,66.15843429102097,66.2325795829529,66.2325795829529,66.2325795829529,66.78451845794916,0,,,,,,,,730109,001,2025-08-15_12h13.30.959,tilt_staircase,2024.2.4,None,2025-08-15 12h13.38.075185 -0700,
,,,,,,,,,,,,,,,,,,,,,,,66.79227904090658,,,,,,,,,,,,,,,,,,,,,,,,,,,,,,,,,,,,,,,,,,,,,,,,,,,,,,,,,,,,,,,,,,negc_negs,30,-15,15,-15,"[5, 2, 1, 0.5]",lin,1,1,8,0,4,19,up,5,0,0,-30,66.78555224998854,66.79227904090658,67.28419095801655,67.28419095801655,67.35934579093009,67.35934579093009,67.35934579093009,67.77871466591023,1,,,,,,,,730109,001,2025-08-15_12h13.30.959,tilt_staircase,2024.2.4,None,2025-08-15 12h13.38.075185 -0700,
,,,,,,,,,,,,,,,,,,,,,,,67.7873171659885,,,,,,,,,,,,,,,,,,,,,,,,,,,,,,,,,,,,,,,,,,,,,,,,,,,,,,,,,,,,,,,,,,negc_noss,30,-15,15,-15,"[5, 2, 1, 0.5]",lin,1,1,8,4,4,20,up,5,0,0,,67.78007595799863,67.7873171659885,68.27482329099439,68.27482329099439,68.34943320800085,68.34943320800085,68.34943320800085,69.56752929091454,0,,,,,,,,730109,001,2025-08-15_12h13.30.959,tilt_staircase,2024.2.4,None,2025-08-15 12h13.38.075185 -0700,
,,,,,,,,,,,,,,,,,,,,,,,69.57566274993587,,,,,,,,,,,,,,,,,,,,,,,,,,,,,,,,,,,,,,,,,,,,,,,,,,,,,,,,,,,,,,,,,,posc_poss,30,15,15,-15,"[5, 2, 1, 0.5]",lin,1,1,8,3,4,21,down,5,0,0,30,69.56874220794998,69.57566274993587,70.0682887500152,70.0682887500152,70.14279295795131,70.14279295795131,70.14279295795131,70.61264570790809,0,,,,,,,,730109,001,2025-08-15_12h13.30.959,tilt_staircase,2024.2.4,None,2025-08-15 12h13.38.075185 -0700,
,,,,,,,,,,,,,,,,,,,,,,,70.6210686659906,,,,,,,,,,,,,,,,,,,,,,,,,,,,,,,,,,,,,,,,,,,,,,,,,,,,,,,,,,,,,,,,,,posc_noss,30,15,15,-15,"[5, 2, 1, 0.5]",lin,1,1,8,5,4,22,down,5,0,0,,70.61404362495523,70.6210686659906,71.10818341595586,71.10818341595586,71.18199204094708,71.18199204094708,71.18199204094708,72.02832137502264,1,,,,,,,,730109,001,2025-08-15_12h13.30.959,tilt_staircase,2024.2.4,None,2025-08-15 12h13.38.075185 -0700,
,,,,,,,,,,,,,,,,,,,,,,,72.03688724990934,,,,,,,,,,,,,,,,,,,,,,,,,,,,,,,,,,,,,,,,,,,,,,,,,,,,,,,,,,,,,,,,,,posc_negs,30,15,15,-15,"[5, 2, 1, 0.5]",lin,1,1,8,1,4,23,down,5,0,0,-30,72.0296270409599,72.03688724990934,72.52595287491567,72.52595287491567,72.59868616599124,72.59868616599124,72.59868616599124,73.03348391596228,1,,,,,,,,730109,001,2025-08-15_12h13.30.959,tilt_staircase,2024.2.4,None,2025-08-15 12h13.38.075185 -0700,
,,,,,,,,,,,,,,,,,,,,,,,73.04165445792023,,,,,,,,,,,,,,,,,,,,,,,,,,,,,,,,,,,,,,,,,,,,,,,,,,,,,,,,,,,,,,,,,,negc_poss,30,-15,15,-15,"[5, 2, 1, 0.5]",lin,1,1,8,2,5,24,up,5,5,5,30,73.03470858291257,73.04165445792023,73.53438316599932,73.53438316599932,73.60962474998087,73.60962474998087,73.60962474998087,74.05092554097064,1,,,,,,,,730109,001,2025-08-15_12h13.30.959,tilt_staircase,2024.2.4,None,2025-08-15 12h13.38.075185 -0700,
,,,,,,,,,,,,,,,,,,,,,,,74.05896974995267,,,,,,,,,,,,,,,,,,,,,,,,,,,,,,,,,,,,,,,,,,,,,,,,,,,,,,,,,,,,,,,,,,posc_negs,30,15,15,-15,"[5, 2, 1, 0.5]",lin,1,1,8,1,5,25,down,5,-5,-5,-30,74.05200799996965,74.05896974995267,74.5493060000008,74.5493060000008,74.62585091590881,74.62585091590881,74.62585091590881,75.17753554100636,0,,,,,,,,730109,001,2025-08-15_12h13.30.959,tilt_staircase,2024.2.4,None,2025-08-15 12h13.38.075185 -0700,
,,,,,,,,,,,,,,,,,,,,,,,75.18513062491547,,,,,,,,,,,,,,,,,,,,,,,,,,,,,,,,,,,,,,,,,,,,,,,,,,,,,,,,,,,,,,,,,,negc_negs,30,-15,15,-15,"[5, 2, 1, 0.5]",lin,1,1,8,0,5,26,down,2,-2,-2,-30,75.17849383293651,75.18513062491547,75.67473770794459,75.67473770794459,75.74908920796588,75.74908920796588,75.74908920796588,76.54376729100477,1,,,,,,,,730109,001,2025-08-15_12h13.30.959,tilt_staircase,2024.2.4,None,2025-08-15 12h13.38.075185 -0700,
,,,,,,,,,,,,,,,,,,,,,,,76.54845362494234,,,,,,,,,,,,,,,,,,,,,,,,,,,,,,,,,,,,,,,,,,,,,,,,,,,,,,,,,,,,,,,,,,negc_noss,30,-15,15,-15,"[5, 2, 1, 0.5]",lin,1,1,8,4,5,27,up,5,5,5,,76.54435545799788,76.54845362494234,77.04173691594042,77.04173691594042,77.11438358295709,77.11438358295709,77.11438358295709,77.63760766596533,1,,,,,,,,730109,001,2025-08-15_12h13.30.959,tilt_staircase,2024.2.4,None,2025-08-15 12h13.38.075185 -0700,
,,,,,,,,,,,,,,,,,,,,,,,77.65922629099805,,,,,,,,,,,,,,,,,,,,,,,,,,,,,,,,,,,,,,,,,,,,,,,,,,,,,,,,,,,,,,,,,,posc_poss,30,15,15,-15,"[5, 2, 1, 0.5]",lin,1,1,8,3,5,28,up,2,2,2,30,77.63858249993064,77.65922629099805,78.13304024992976,78.13304024992976,78.21421949996147,78.20835595799144,78.20835595799144,80.41047566593625,0,,,,,,,,730109,001,2025-08-15_12h13.30.959,tilt_staircase,2024.2.4,None,2025-08-15 12h13.38.075185 -0700,
,,,,,,,,,,,,,,,,,,,,,,,80.41843974997755,,,,,,,,,,,,,,,,,,,,,,,,,,,,,,,,,,,,,,,,,,,,,,,,,,,,,,,,,,,,,,,,,,posc_noss,30,15,15,-15,"[5, 2, 1, 0.5]",lin,1,1,8,5,5,29,down,5,-5,-5,,80.4114610409597,80.41843974997755,80.90128083294258,80.90128083294258,80.98174808290787,80.97601462493185,80.97601462493185,81.36968883301597,0,,,,,,,,730109,001,2025-08-15_12h13.30.959,tilt_staircase,2024.2.4,None,2025-08-15 12h13.38.075185 -0700,
,,,,,,,,,,,,,,,,,,,,,,,81.37512841599528,,,,,,,,,,,,,,,,,,,,,,,,,,,,,,,,,,,,,,,,,,,,,,,,,,,,,,,,,,,,,,,,,,posc_negs,30,15,15,-15,"[5, 2, 1, 0.5]",lin,1,1,8,1,6,30,up,2,-3,-3,-30,81.37065762490965,81.37512841599528,81.86767887498718,81.86767887498718,81.94259649992455,81.94259649992455,81.94259649992455,82.73368108295836,0,,,,,,,,730109,001,2025-08-15_12h13.30.959,tilt_staircase,2024.2.4,None,2025-08-15 12h13.38.075185 -0700,
,,,,,,,,,,,,,,,,,,,,,,,82.74158108292613,,,,,,,,,,,,,,,,,,,,,,,,,,,,,,,,,,,,,,,,,,,,,,,,,,,,,,,,,,,,,,,,,,negc_poss,30,-15,15,-15,"[5, 2, 1, 0.5]",lin,1,1,8,2,6,31,down,2,3,3,30,82.73468091594987,82.74158108292613,83.2346679159673,83.2346679159673,83.309670208022,83.309670208022,83.309670208022,83.77829624991864,1,,,,,,,,730109,001,2025-08-15_12h13.30.959,tilt_staircase,2024.2.4,None,2025-08-15 12h13.38.075185 -0700,
,,,,,,,,,,,,,,,,,,,,,,,83.78669866593555,,,,,,,,,,,,,,,,,,,,,,,,,,,,,,,,,,,,,,,,,,,,,,,,,,,,,,,,,,,,,,,,,,posc_noss,30,15,15,-15,"[5, 2, 1, 0.5]",lin,1,1,8,5,6,32,up,2,-3,-3,,83.77993820793927,83.78669866593555,84.27472666592803,84.27472666592803,84.34889195801225,84.34889195801225,84.34889195801225,84.76710966601968,0,,,,,,,,730109,001,2025-08-15_12h13.30.959,tilt_staircase,2024.2.4,None,2025-08-15 12h13.38.075185 -0700,
,,,,,,,,,,,,,,,,,,,,,,,84.77503437490668,,,,,,,,,,,,,,,,,,,,,,,,,,,,,,,,,,,,,,,,,,,,,,,,,,,,,,,,,,,,,,,,,,negc_negs,30,-15,15,-15,"[5, 2, 1, 0.5]",lin,1,1,8,0,6,33,down,2,-4,-4,-30,84.76808224990964,84.77503437490668,85.26796791597735,85.26796791597735,85.3428723749239,85.3428723749239,85.3428723749239,85.86121775000356,1,,,,,,,,730109,001,2025-08-15_12h13.30.959,tilt_staircase,2024.2.4,None,2025-08-15 12h13.38.075185 -0700,
,,,,,,,,,,,,,,,,,,,,,,,85.86908799991943,,,,,,,,,,,,,,,,,,,,,,,,,,,,,,,,,,,,,,,,,,,,,,,,,,,,,,,,,,,,,,,,,,posc_poss,30,15,15,-15,"[5, 2, 1, 0.5]",lin,1,1,8,3,6,34,up,2,4,4,30,85.86238908302039,85.86908799991943,86.35806441598106,86.35806441598106,86.43196941597853,86.43196941597853,86.43196941597853,86.8838991249213,1,,,,,,,,730109,001,2025-08-15_12h13.30.959,tilt_staircase,2024.2.4,None,2025-08-15 12h13.38.075185 -0700,
,,,,,,,,,,,,,,,,,,,,,,,86.89247620792594,,,,,,,,,,,,,,,,,,,,,,,,,,,,,,,,,,,,,,,,,,,,,,,,,,,,,,,,,,,,,,,,,,negc_noss,30,-15,15,-15,"[5, 2, 1, 0.5]",lin,1,1,8,4,6,35,down,2,3,3,,86.88504929095507,86.89247620792594,87.38456870801747,87.38456870801747,87.45970720797777,87.45970720797777,87.45970720797777,87.87756758299656,1,,,,,,,,730109,001,2025-08-15_12h13.30.959,tilt_staircase,2024.2.4,None,2025-08-15 12h13.38.075185 -0700,
,,,,,,,,,,,,,,,,,,,,,,,87.8857443749439,,,,,,,,,,,,,,,,,,,,,,,,,,,,,,,,,,,,,,,,,,,,,,,,,,,,,,,,,,,,,,,,,,negc_negs,30,-15,15,-15,"[5, 2, 1, 0.5]",lin,1,1,8,0,7,36,down,2,-6,-6,-30,87.8788683329476,87.8857443749439,88.37563262495678,88.37563262495678,88.4487191659864,88.4487191659864,88.4487191659864,88.89441595796961,0,,,,,,,,730109,001,2025-08-15_12h13.30.959,tilt_staircase,2024.2.4,None,2025-08-15 12h13.38.075185 -0700,
,,,,,,,,,,,,,,,,,,,,,,,88.90210504096467,,,,,,,,,,,,,,,,,,,,,,,,,,,,,,,,,,,,,,,,,,,,,,,,,,,,,,,,,,,,,,,,,,posc_noss,30,15,15,-15,"[5, 2, 1, 0.5]",lin,1,1,8,5,7,37,up,2,-1,-1,,88.8953608329175,88.90210504096467,89.3915623750072,89.3915623750072,89.46529966592789,89.46529966592789,89.46529966592789,90.11089870799333,0,,,,,,,,730109,001,2025-08-15_12h13.30.959,tilt_staircase,2024.2.4,None,2025-08-15 12h13.38.075185 -0700,
,,,,,,,,,,,,,,,,,,,,,,,90.11916999996174,,,,,,,,,,,,,,,,,,,,,,,,,,,,,,,,,,,,,,,,,,,,,,,,,,,,,,,,,,,,,,,,,,posc_poss,30,15,15,-15,"[5, 2, 1, 0.5]",lin,1,1,8,3,7,38,down,1,3,3,30,90.11218158295378,90.11916999996174,90.60825849999674,90.60825849999674,90.68240574991796,90.68240574991796,90.68240574991796,91.1447206659941,1,,,,,,,,730109,001,2025-08-15_12h13.30.959,tilt_staircase,2024.2.4,None,2025-08-15 12h13.38.075185 -0700,
,,,,,,,,,,,,,,,,,,,,,,,91.1505611659959,,,,,,,,,,,,,,,,,,,,,,,,,,,,,,,,,,,,,,,,,,,,,,,,,,,,,,,,,,,,,,,,,,negc_noss,30,-15,15,-15,"[5, 2, 1, 0.5]",lin,1,1,8,4,7,39,down,2,1,1,,91.14544754091185,91.1505611659959,91.64274383301381,91.64274383301381,91.71384683297947,91.71384683297947,91.71384683297947,92.43378462491091,1,,,,,,,,730109,001,2025-08-15_12h13.30.959,tilt_staircase,2024.2.4,None,2025-08-15 12h13.38.075185 -0700,
,,,,,,,,,,,,,,,,,,,,,,,92.44226616597734,,,,,,,,,,,,,,,,,,,,,,,,,,,,,,,,,,,,,,,,,,,,,,,,,,,,,,,,,,,,,,,,,,negc_poss,30,-15,15,-15,"[5, 2, 1, 0.5]",lin,1,1,8,2,7,40,down,2,1,1,30,92.43495737493504,92.44226616597734,92.93487808294594,92.93487808294594,93.0095102499472,93.0095102499472,93.0095102499472,93.52806708298158,0,,,,,,,,730109,001,2025-08-15_12h13.30.959,tilt_staircase,2024.2.4,None,2025-08-15 12h13.38.075185 -0700,
,,,,,,,,,,,,,,,,,,,,,,,93.53638520801906,,,,,,,,,,,,,,,,,,,,,,,,,,,,,,,,,,,,,,,,,,,,,,,,,,,,,,,,,,,,,,,,,,posc_negs,30,15,15,-15,"[5, 2, 1, 0.5]",lin,1,1,8,1,7,41,up,2,-1,-1,-30,93.52919070795178,93.53638520801906,94.02578854095191,94.02578854095191,94.0987039579777,94.0987039579777,94.0987039579777,95.727778499946,1,,,,,,,,730109,001,2025-08-15_12h13.30.959,tilt_staircase,2024.2.4,None,2025-08-15 12h13.38.075185 -0700,
,,,,,,,,,,,,,,,,,,,,,,,95.73572145798244,,,,,,,,,,,,,,,,,,,,,,,,,,,,,,,,,,,,,,,,,,,,,,,,,,,,,,,,,,,,,,,,,,posc_negs,30,15,15,-15,"[5, 2, 1, 0.5]",lin,1,1,8,1,8,42,down,1,-2,-2,-30,95.7288273749873,95.73572145798244,96.225023707957,96.225023707957,96.29897358291782,96.29897358291782,96.29897358291782,97.21108379098587,0,,,,,,,,730109,001,2025-08-15_12h13.30.959,tilt_staircase,2024.2.4,None,2025-08-15 12h13.38.075185 -0700,
,,,,,,,,,,,,,,,,,,,,,,,97.21975970792118,,,,,,,,,,,,,,,,,,,,,,,,,,,,,,,,,,,,,,,,,,,,,,,,,,,,,,,,,,,,,,,,,,negc_negs,30,-15,15,-15,"[5, 2, 1, 0.5]",lin,1,1,8,0,8,43,up,1,-5,-5,-30,97.21284483291674,97.21975970792118,97.70808058301918,97.70808058301918,97.78242724994197,97.78242724994197,97.78242724994197,98.25063541601412,0,,,,,,,,730109,001,2025-08-15_12h13.30.959,tilt_staircase,2024.2.4,None,2025-08-15 12h13.38.075185 -0700,
,,,,,,,,,,,,,,,,,,,,,,,98.25881508295424,,,,,,,,,,,,,,,,,,,,,,,,,,,,,,,,,,,,,,,,,,,,,,,,,,,,,,,,,,,,,,,,,,negc_poss,30,-15,15,-15,"[5, 2, 1, 0.5]",lin,1,1,8,2,8,44,up,1,2,2,30,98.25172674993519,98.25881508295424,98.75048774993047,98.75048774993047,98.82624474994373,98.82624474994373,98.82624474994373,100.07814674999099,0,,,,,,,,730109,001,2025-08-15_12h13.30.959,tilt_staircase,2024.2.4,None,2025-08-15 12h13.38.075185 -0700,
,,,,,,,,,,,,,,,,,,,,,,,100.08634108293336,,,,,,,,,,,,,,,,,,,,,,,,,,,,,,,,,,,,,,,,,,,,,,,,,,,,,,,,,,,,,,,,,,posc_noss,30,15,15,-15,"[5, 2, 1, 0.5]",lin,1,1,8,5,8,45,up,2,1,1,,100.07924524997361,100.08634108293336,100.5764850829728,100.5764850829728,100.648658332997,100.648658332997,100.648658332997,101.32822908298112,1,,,,,,,,730109,001,2025-08-15_12h13.30.959,tilt_staircase,2024.2.4,None,2025-08-15 12h13.38.075185 -0700,
,,,,,,,,,,,,,,,,,,,,,,,101.33644208300393,,,,,,,,,,,,,,,,,,,,,,,,,,,,,,,,,,,,,,,,,,,,,,,,,,,,,,,,,,,,,,,,,,negc_noss,30,-15,15,-15,"[5, 2, 1, 0.5]",lin,1,1,8,4,8,46,down,2,-1,-1,,101.32955437491182,101.33644208300393,101.82471945800353,101.82471945800353,101.89909866591915,101.89909866591915,101.89909866591915,102.41944074991625,0,,,,,,,,730109,001,2025-08-15_12h13.30.959,tilt_staircase,2024.2.4,None,2025-08-15 12h13.38.075185 -0700,
,,,,,,,,,,,,,,,,,,,,,,,102.42495279095601,,,,,,,,,,,,,,,,,,,,,,,,,,,,,,,,,,,,,,,,,,,,,,,,,,,,,,,,,,,,,,,,,,posc_poss,30,15,15,-15,"[5, 2, 1, 0.5]",lin,1,1,8,3,8,47,down,1,2,2,30,102.42038516595494,102.42495279095601,102.91842449991964,102.91842449991964,102.99287008296233,102.99287008296233,102.99287008296233,103.75334266596474,1,,,,,,,,730109,001,2025-08-15_12h13.30.959,tilt_staircase,2024.2.4,None,2025-08-15 12h13.38.075185 -0700,
,,,,,,,,,,,,,,,,,,,,,,,103.75863762490917,,,,,,,,,,,,,,,,,,,,,,,,,,,,,,,,,,,,,,,,,,,,,,,,,,,,,,,,,,,,,,,,,,posc_noss,30,15,15,-15,"[5, 2, 1, 0.5]",lin,1,1,8,5,9,48,down,1,0,0,,103.75432758301031,103.75863762490917,104.25075966597069,104.25075966597069,104.3321831249632,104.32634112494998,104.32634112494998,108.4617332079215,0,,,,,,,,730109,001,2025-08-15_12h13.30.959,tilt_staircase,2024.2.4,None,2025-08-15 12h13.38.075185 -0700,
,,,,,,,,,,,,,,,,,,,,,,,108.4706213750178,,,,,,,,,,,,,,,,,,,,,,,,,,,,,,,,,,,,,,,,,,,,,,,,,,,,,,,,,,,,,,,,,,negc_negs,30,-15,15,-15,"[5, 2, 1, 0.5]",lin,1,1,8,0,9,49,up,1,-4,-4,-30,108.46361845801584,108.4706213750178,108.95947204099502,108.95947204099502,109.03227470791899,109.03227470791899,109.03227470791899,109.56186229095329,0,,,,,,,,730109,001,2025-08-15_12h13.30.959,tilt_staircase,2024.2.4,None,2025-08-15 12h13.38.075185 -0700,
,,,,,,,,,,,,,,,,,,,,,,,109.57031566591468,,,,,,,,,,,,,,,,,,,,,,,,,,,,,,,,,,,,,,,,,,,,,,,,,,,,,,,,,,,,,,,,,,negc_noss,30,-15,15,-15,"[5, 2, 1, 0.5]",lin,1,1,8,4,9,50,up,1,0,0,,109.5636303749634,109.57031566591468,110.05877508292906,110.05877508292906,110.13208404101897,110.13208404101897,110.13208404101897,110.82753937493544,1,,,,,,,,730109,001,2025-08-15_12h13.30.959,tilt_staircase,2024.2.4,None,2025-08-15 12h13.38.075185 -0700,
,,,,,,,,,,,,,,,,,,,,,,,110.83549262501765,,,,,,,,,,,,,,,,,,,,,,,,,,,,,,,,,,,,,,,,,,,,,,,,,,,,,,,,,,,,,,,,,,posc_negs,30,15,15,-15,"[5, 2, 1, 0.5]",lin,1,1,8,1,9,51,up,0.5,-1.5,-1.5,-30,110.82855812495109,110.83549262501765,111.32479062501807,111.32479062501807,111.39882762497291,111.39882762497291,111.39882762497291,112.76696525001898,1,,,,,,,,730109,001,2025-08-15_12h13.30.959,tilt_staircase,2024.2.4,None,2025-08-15 12h13.38.075185 -0700,
,,,,,,,,,,,,,,,,,,,,,,,112.77503754093777,,,,,,,,,,,,,,,,,,,,,,,,,,,,,,,,,,,,,,,,,,,,,,,,,,,,,,,,,,,,,,,,,,negc_poss,30,-15,15,-15,"[5, 2, 1, 0.5]",lin,1,1,8,2,9,52,up,1,3,3,30,112.76810233294964,112.77503754093777,113.26780041598249,113.26780041598249,113.34296441602055,113.34296441602055,113.34296441602055,113.86665491596796,1,,,,,,,,730109,001,2025-08-15_12h13.30.959,tilt_staircase,2024.2.4,None,2025-08-15 12h13.38.075185 -0700,
,,,,,,,,,,,,,,,,,,,,,,,113.8745959160151,,,,,,,,,,,,,,,,,,,,,,,,,,,,,,,,,,,,,,,,,,,,,,,,,,,,,,,,,,,,,,,,,,posc_poss,30,15,15,-15,"[5, 2, 1, 0.5]",lin,1,1,8,3,9,53,down,1,1,1,30,113.86765704094432,113.8745959160151,114.36862149997614,114.36862149997614,114.44288774998859,114.44288774998859,114.44288774998859,115.91084233298898,1,,,,,,,,730109,001,2025-08-15_12h13.30.959,tilt_staircase,2024.2.4,None,2025-08-15 12h13.38.075185 -0700,
,,,,,,,,,,,,,,,,,,,,,,,115.91867954097688,,,,,,,,,,,,,,,,,,,,,,,,,,,,,,,,,,,,,,,,,,,,,,,,,,,,,,,,,,,,,,,,,,posc_noss,30,15,15,-15,"[5, 2, 1, 0.5]",lin,1,1,8,5,10,54,up,0.5,0.5,0.5,,115.91182391601615,115.91867954097688,116.40942587493919,116.40942587493919,116.48196612496395,116.48196612496395,116.48196612496395,116.97823766595684,1,,,,,,,,730109,001,2025-08-15_12h13.30.959,tilt_staircase,2024.2.4,None,2025-08-15 12h13.38.075185 -0700,
,,,,,,,,,,,,,,,,,,,,,,,116.9866621249821,,,,,,,,,,,,,,,,,,,,,,,,,,,,,,,,,,,,,,,,,,,,,,,,,,,,,,,,,,,,,,,,,,negc_negs,30,-15,15,-15,"[5, 2, 1, 0.5]",lin,1,1,8,0,10,55,up,1,-3,-3,-30,116.97987587493844,116.9866621249821,117.47499041596893,117.47499041596893,117.54548704100307,117.54548704100307,117.54548704100307,118.05332941596862,0,,,,,,,,730109,001,2025-08-15_12h13.30.959,tilt_staircase,2024.2.4,None,2025-08-15 12h13.38.075185 -0700,
,,,,,,,,,,,,,,,,,,,,,,,118.05855245795101,,,,,,,,,,,,,,,,,,,,,,,,,,,,,,,,,,,,,,,,,,,,,,,,,,,,,,,,,,,,,,,,,,negc_noss,30,-15,15,-15,"[5, 2, 1, 0.5]",lin,1,1,8,4,10,56,down,0.5,-0.5,-0.5,,118.05425441591069,118.05855245795101,118.55113191599958,118.55113191599958,118.62608287495095,118.62608287495095,118.62608287495095,119.21173108299263,0,,,,,,,,730109,001,2025-08-15_12h13.30.959,tilt_staircase,2024.2.4,None,2025-08-15 12h13.38.075185 -0700,
,,,,,,,,,,,,,,,,,,,,,,,119.22120858298149,,,,,,,,,,,,,,,,,,,,,,,,,,,,,,,,,,,,,,,,,,,,,,,,,,,,,,,,,,,,,,,,,,negc_poss,30,-15,15,-15,"[5, 2, 1, 0.5]",lin,1,1,8,2,10,57,down,0.5,2.5,2.5,30,119.21374562499113,119.22120858298149,119.7080417079851,119.7080417079851,119.78219950001221,119.78219950001221,119.78219950001221,120.7667041249806,1,,,,,,,,730109,001,2025-08-15_12h13.30.959,tilt_staircase,2024.2.4,None,2025-08-15 12h13.38.075185 -0700,
,,,,,,,,,,,,,,,,,,,,,,,120.77477304101922,,,,,,,,,,,,,,,,,,,,,,,,,,,,,,,,,,,,,,,,,,,,,,,,,,,,,,,,,,,,,,,,,,posc_poss,30,15,15,-15,"[5, 2, 1, 0.5]",lin,1,1,8,3,10,58,down,1,0,0,30,120.76774104090873,120.77477304101922,121.25806362496223,121.25806362496223,121.34288249991369,121.33181412494741,121.33181412494741,121.81154633301776,0,,,,,,,,730109,001,2025-08-15_12h13.30.959,tilt_staircase,2024.2.4,None,2025-08-15 12h13.38.075185 -0700,
,,,,,,,,,,,,,,,,,,,,,,,121.81992233300116,,,,,,,,,,,,,,,,,,,,,,,,,,,,,,,,,,,,,,,,,,,,,,,,,,,,,,,,,,,,,,,,,,posc_negs,30,15,15,-15,"[5, 2, 1, 0.5]",lin,1,1,8,1,10,59,down,0.5,-2.0,-2.0,-30,121.81330133299343,121.81992233300116,122.30800704099238,122.30800704099238,122.3820158749586,122.3820158749586,122.3820158749586,123.17855504096951,0,,,,,,,,730109,001,2025-08-15_12h13.30.959,tilt_staircase,2024.2.4,None,2025-08-15 12h13.38.075185 -0700,
,,,,,,,,,,,,,,,,,,,,,,,123.18693550000899,,,,,,,,,,,,,,,,,,,,,,,,,,,,,,,,,,,,,,,,,,,,,,,,,,,,,,,,,,,,,,,,,,posc_poss,30,15,15,-15,"[5, 2, 1, 0.5]",lin,1,1,8,3,11,60,up,0.5,0.5,0.5,30,123.18002312490717,123.18693550000899,123.67464404099155,123.67464404099155,123.74933625000995,123.74933625000995,123.74933625000995,125.31706333300099,0,,,,,,,,730109,001,2025-08-15_12h13.30.959,tilt_staircase,2024.2.4,None,2025-08-15 12h13.38.075185 -0700,
,,,,,,,,,,,,,,,,,,,,,,,125.3251332079526,,,,,,,,,,,,,,,,,,,,,,,,,,,,,,,,,,,,,,,,,,,,,,,,,,,,,,,,,,,,,,,,,,negc_poss,30,-15,15,-15,"[5, 2, 1, 0.5]",lin,1,1,8,2,11,61,down,0.5,2.0,2.0,30,125.31806999992114,125.3251332079526,125.8185337500181,125.8185337500181,125.8924652079586,125.8924652079586,125.8924652079586,126.71364891598932,1,,,,,,,,730109,001,2025-08-15_12h13.30.959,tilt_staircase,2024.2.4,None,2025-08-15 12h13.38.075185 -0700,
,,,,,,,,,,,,,,,,,,,,,,,126.72556099994108,,,,,,,,,,,,,,,,,,,,,,,,,,,,,,,,,,,,,,,,,,,,,,,,,,,,,,,,,,,,,,,,,,posc_negs,30,15,15,-15,"[5, 2, 1, 0.5]",lin,1,1,8,1,11,62,up,0.5,-1.5,-1.5,-30,126.7145685829455,126.72556099994108,127.20802595792338,127.20802595792338,127.28218833298888,127.28218833298888,127.28218833298888,128.11124841601122,1,,,,,,,,730109,001,2025-08-15_12h13.30.959,tilt_staircase,2024.2.4,None,2025-08-15 12h13.38.075185 -0700,
,,,,,,,,,,,,,,,,,,,,,,,128.12022941594478,,,,,,,,,,,,,,,,,,,,,,,,,,,,,,,,,,,,,,,,,,,,,,,,,,,,,,,,,,,,,,,,,,posc_noss,30,15,15,-15,"[5, 2, 1, 0.5]",lin,1,1,8,5,11,63,down,0.5,0.0,0.0,,128.11298337497283,128.12022941594478,128.6085650830064,128.6085650830064,128.6832198749762,128.6832198749762,128.6832198749762,130.06115195795428,0,,,,,,,,730109,001,2025-08-15_12h13.30.959,tilt_staircase,2024.2.4,None,2025-08-15 12h13.38.075185 -0700,
,,,,,,,,,,,,,,,,,,,,,,,130.0690747909248,,,,,,,,,,,,,,,,,,,,,,,,,,,,,,,,,,,,,,,,,,,,,,,,,,,,,,,,,,,,,,,,,,negc_noss,30,-15,15,-15,"[5, 2, 1, 0.5]",lin,1,1,8,4,11,64,up,0.5,0.0,0.0,,130.06216166599188,130.0690747909248,130.55803062499035,130.55803062499035,130.6322968750028,130.6322968750028,130.6322968750028,131.29812920792028,0,,,,,,,,730109,001,2025-08-15_12h13.30.959,tilt_staircase,2024.2.4,None,2025-08-15 12h13.38.075185 -0700,
,,,,,,,,,,,,,,,,,,,,,,,131.3080716659315,,,,,,,,,,,,,,,,,,,,,,,,,,,,,,,,,,,,,,,,,,,,,,,,,,,,,,,,,,,,,,,,,,negc_negs,30,-15,15,-15,"[5, 2, 1, 0.5]",lin,1,1,8,0,11,65,up,1,-2,-2,-30,131.2990760409739,131.3080716659315,131.79285783297382,131.79285783297382,131.87565991596784,131.86412333301269,131.86412333301269,133.17717591591645,0,,,,,,,,730109,001,2025-08-15_12h13.30.959,tilt_staircase,2024.2.4,None,2025-08-15 12h13.38.075185 -0700,
,,,,,,,,,,,,,,,,,,,,,,,133.18334916594904,,,,,,,,,,,,,,,,,,,,,,,,,,,,,,,,,,,,,,,,,,,,,,,,,,,,,,,,,,,,,,,,,,posc_negs,30,15,15,-15,"[5, 2, 1, 0.5]",lin,1,1,8,1,12,66,down,0.5,-2.0,-2.0,-30,133.1783842499135,133.18334916594904,133.6755331249442,133.6755331249442,133.748620832921,133.748620832921,133.748620832921,135.66164416598622,0,,,,,,,,730109,001,2025-08-15_12h13.30.959,tilt_staircase,2024.2.4,None,2025-08-15 12h13.38.075185 -0700,
,,,,,,,,,,,,,,,,,,,,,,,135.66961845802143,,,,,,,,,,,,,,,,,,,,,,,,,,,,,,,,,,,,,,,,,,,,,,,,,,,,,,,,,,,,,,,,,,negc_poss,30,-15,15,-15,"[5, 2, 1, 0.5]",lin,1,1,8,2,12,67,down,0.5,1.5,1.5,30,135.66278420796152,135.66961845802143,136.15802062500734,136.15802062500734,136.22980454098433,136.22980454098433,136.22980454098433,136.82698508293834,1,,,,,,,,730109,001,2025-08-15_12h13.30.959,tilt_staircase,2024.2.4,None,2025-08-15 12h13.38.075185 -0700,
,,,,,,,,,,,,,,,,,,,,,,,136.8316755829146,,,,,,,,,,,,,,,,,,,,,,,,,,,,,,,,,,,,,,,,,,,,,,,,,,,,,,,,,,,,,,,,,,posc_noss,30,15,15,-15,"[5, 2, 1, 0.5]",lin,1,1,8,5,12,68,up,0.5,0.5,0.5,,136.82753441599198,136.8316755829146,137.32535558298696,137.32535558298696,137.39836004097015,137.39836004097015,137.39836004097015,137.93438987492118,1,,,,,,,,730109,001,2025-08-15_12h13.30.959,tilt_staircase,2024.2.4,None,2025-08-15 12h13.38.075185 -0700,
,,,,,,,,,,,,,,,,,,,,,,,137.95915599993896,,,,,,,,,,,,,,,,,,,,,,,,,,,,,,,,,,,,,,,,,,,,,,,,,,,,,,,,,,,,,,,,,,negc_noss,30,-15,15,-15,"[5, 2, 1, 0.5]",lin,1,1,8,4,12,69,up,0.5,0.5,0.5,,137.93553841591347,137.95915599993896,138.43213774997275,138.43213774997275,138.5081912499154,138.5081912499154,138.5081912499154,139.03345558291767,1,,,,,,,,730109,001,2025-08-15_12h13.30.959,tilt_staircase,2024.2.4,None,2025-08-15 12h13.38.075185 -0700,
,,,,,,,,,,,,,,,,,,,,,,,139.041577457916,,,,,,,,,,,,,,,,,,,,,,,,,,,,,,,,,,,,,,,,,,,,,,,,,,,,,,,,,,,,,,,,,,posc_poss,30,15,15,-15,"[5, 2, 1, 0.5]",lin,1,1,8,3,12,70,up,0.5,1.0,1.0,30,139.03448037500493,139.041577457916,139.5344160409877,139.5344160409877,139.60939358291216,139.60939358291216,139.60939358291216,141.97773141600192,1,,,,,,,,730109,001,2025-08-15_12h13.30.959,tilt_staircase,2024.2.4,None,2025-08-15 12h13.38.075185 -0700,
,,,,,,,,,,,,,,,,,,,,,,,141.9862563329516,,,,,,,,,,,,,,,,,,,,,,,,,,,,,,,,,,,,,,,,,,,,,,,,,,,,,,,,,,,,,,,,,,negc_negs,30,-15,15,-15,"[5, 2, 1, 0.5]",lin,1,1,8,0,12,71,up,1,-1,-1,-30,141.97919179091696,141.9862563329516,142.47460362501442,142.47460362501442,142.5492922909325,142.5492922909325,142.5492922909325,143.02844454091974,1,,,,,,,,730109,001,2025-08-15_12h13.30.959,tilt_staircase,2024.2.4,None,2025-08-15 12h13.38.075185 -0700,
,,,,,,,,,,,,,,,,,,,,,,,143.03718641598243,,,,,,,,,,,,,,,,,,,,,,,,,,,,,,,,,,,,,,,,,,,,,,,,,,,,,,,,,,,,,,,,,,posc_noss,30,15,15,-15,"[5, 2, 1, 0.5]",lin,1,1,8,5,13,72,down,0.5,0.0,0.0,,143.03035649994854,143.03718641598243,143.52471170795616,143.52471170795616,143.5986260829959,143.5986260829959,143.5986260829959,145.04455954092555,0,,,,,,,,730109,001,2025-08-15_12h13.30.959,tilt_staircase,2024.2.4,None,2025-08-15 12h13.38.075185 -0700,
,,,,,,,,,,,,,,,,,,,,,,,145.0519929579459,,,,,,,,,,,,,,,,,,,,,,,,,,,,,,,,,,,,,,,,,,,,,,,,,,,,,,,,,,,,,,,,,,posc_poss,30,15,15,-15,"[5, 2, 1, 0.5]",lin,1,1,8,3,13,73,down,0.5,0.5,0.5,30,145.0455318329623,145.0519929579459,145.54123550001532,145.54123550001532,145.61564804101363,145.61564804101363,145.61564804101363,146.01266312494408,0,,,,,,,,730109,001,2025-08-15_12h13.30.959,tilt_staircase,2024.2.4,None,2025-08-15 12h13.38.075185 -0700,
,,,,,,,,,,,,,,,,,,,,,,,146.0201281659538,,,,,,,,,,,,,,,,,,,,,,,,,,,,,,,,,,,,,,,,,,,,,,,,,,,,,,,,,,,,,,,,,,posc_negs,30,15,15,-15,"[5, 2, 1, 0.5]",lin,1,1,8,1,13,74,up,0.5,-1.5,-1.5,-30,146.01378329098225,146.0201281659538,146.5082033330109,146.5082033330109,146.59203062497545,146.57899316598196,146.57899316598196,147.1449109580135,1,,,,,,,,730109,001,2025-08-15_12h13.30.959,tilt_staircase,2024.2.4,None,2025-08-15 12h13.38.075185 -0700,
,,,,,,,,,,,,,,,,,,,,,,,147.15366516599897,,,,,,,,,,,,,,,,,,,,,,,,,,,,,,,,,,,,,,,,,,,,,,,,,,,,,,,,,,,,,,,,,,negc_poss,30,-15,15,-15,"[5, 2, 1, 0.5]",lin,1,1,8,2,13,75,down,0.5,1.0,1.0,30,147.14637899992522,147.15366516599897,147.64287350000814,147.64287350000814,147.71575537498575,147.71575537498575,147.71575537498575,148.52711274998728,1,,,,,,,,730109,001,2025-08-15_12h13.30.959,tilt_staircase,2024.2.4,None,2025-08-15 12h13.38.075185 -0700,
,,,,,,,,,,,,,,,,,,,,,,,148.53516112500802,,,,,,,,,,,,,,,,,,,,,,,,,,,,,,,,,,,,,,,,,,,,,,,,,,,,,,,,,,,,,,,,,,negc_noss,30,-15,15,-15,"[5, 2, 1, 0.5]",lin,1,1,8,4,13,76,down,0.5,0.0,0.0,,148.52811320801266,148.53516112500802,149.02465558296535,149.02465558296535,149.0988906659186,149.0988906659186,149.0988906659186,149.76991216593888,0,,,,,,,,730109,001,2025-08-15_12h13.30.959,tilt_staircase,2024.2.4,None,2025-08-15 12h13.38.075185 -0700,
,,,,,,,,,,,,,,,,,,,,,,,149.77537670801394,,,,,,,,,,,,,,,,,,,,,,,,,,,,,,,,,,,,,,,,,,,,,,,,,,,,,,,,,,,,,,,,,,negc_negs,30,-15,15,-15,"[5, 2, 1, 0.5]",lin,1,1,8,0,13,77,down,0.5,-1.5,-1.5,-30,149.77090000000317,149.77537670801394,150.26760808296967,150.26760808296967,150.34875574999023,150.34270741592627,150.34270741592627,151.22038779093418,1,,,,,,,,730109,001,2025-08-15_12h13.30.959,tilt_staircase,2024.2.4,None,2025-08-15 12h13.38.075185 -0700,
,,,,,,,,,,,,,,,,,,,,,,,151.22573829093017,,,,,,,,,,,,,,,,,,,,,,,,,,,,,,,,,,,,,,,,,,,,,,,,,,,,,,,,,,,,,,,,,,negc_negs,30,-15,15,-15,"[5, 2, 1, 0.5]",lin,1,1,8,0,14,78,down,0.5,-2.0,-2.0,-30,151.22139958292246,151.22573829093017,151.71794837492052,151.71794837492052,151.79896766599268,151.79276016599033,151.79276016599033,152.5115235829726,1,,,,,,,,730109,001,2025-08-15_12h13.30.959,tilt_staircase,2024.2.4,None,2025-08-15 12h13.38.075185 -0700,
,,,,,,,,,,,,,,,,,,,,,,,152.52059695799835,,,,,,,,,,,,,,,,,,,,,,,,,,,,,,,,,,,,,,,,,,,,,,,,,,,,,,,,,,,,,,,,,,posc_negs,30,15,15,-15,"[5, 2, 1, 0.5]",lin,1,1,8,1,14,79,down,0.5,-2.0,-2.0,-30,152.5133585409494,152.52059695799835,153.0082231250126,153.0082231250126,153.0819435409503,153.0819435409503,153.0819435409503,153.73375954094809,1,,,,,,,,730109,001,2025-08-15_12h13.30.959,tilt_staircase,2024.2.4,None,2025-08-15 12h13.38.075185 -0700,
,,,,,,,,,,,,,,,,,,,,,,,153.74254562496208,,,,,,,,,,,,,,,,,,,,,,,,,,,,,,,,,,,,,,,,,,,,,,,,,,,,,,,,,,,,,,,,,,posc_noss,30,15,15,-15,"[5, 2, 1, 0.5]",lin,1,1,8,5,14,80,up,0.5,0.5,0.5,,153.7350094160065,153.74254562496208,154.23392124997918,154.23392124997918,154.30935604101978,154.30935604101978,154.30935604101978,156.8003242079867,1,,,,,,,,730109,001,2025-08-15_12h13.30.959,tilt_staircase,2024.2.4,None,2025-08-15 12h13.38.075185 -0700,
,,,,,,,,,,,,,,,,,,,,,,,156.8085787909804,,,,,,,,,,,,,,,,,,,,,,,,,,,,,,,,,,,,,,,,,,,,,,,,,,,,,,,,,,,,,,,,,,posc_poss,30,15,15,-15,"[5, 2, 1, 0.5]",lin,1,1,8,3,14,81,up,0.5,1.0,1.0,30,156.80137012491468,156.8085787909804,157.30141691595782,157.30141691595782,157.37609379098285,157.37609379098285,157.37609379098285,157.82002191594802,0,,,,,,,,730109,001,2025-08-15_12h13.30.959,tilt_staircase,2024.2.4,None,2025-08-15 12h13.38.075185 -0700,
,,,,,,,,,,,,,,,,,,,,,,,157.82531183294486,,,,,,,,,,,,,,,,,,,,,,,,,,,,,,,,,,,,,,,,,,,,,,,,,,,,,,,,,,,,,,,,,,negc_noss,30,-15,15,-15,"[5, 2, 1, 0.5]",lin,1,1,8,4,14,82,up,0.5,0.5,0.5,,157.82099149993155,157.82531183294486,158.31796079094056,158.31796079094056,158.3991212499095,158.39273887500167,158.39273887500167,161.0115151249338,0,,,,,,,,730109,001,2025-08-15_12h13.30.959,tilt_staircase,2024.2.4,None,2025-08-15 12h13.38.075185 -0700,
,,,,,,,,,,,,,,,,,,,,,,,161.01999212498777,,,,,,,,,,,,,,,,,,,,,,,,,,,,,,,,,,,,,,,,,,,,,,,,,,,,,,,,,,,,,,,,,,negc_poss,30,-15,15,-15,"[5, 2, 1, 0.5]",lin,1,1,8,2,14,83,down,0.5,0.5,0.5,30,161.0126900000032,161.01999212498777,161.50793770793825,161.50793770793825,161.58210462494753,161.58210462494753,161.58210462494753,162.14438441593666,0,,,,,,,,730109,001,2025-08-15_12h13.30.959,tilt_staircase,2024.2.4,None,2025-08-15 12h13.38.075185 -0700,
,,,,,,,,,,,,,,,,,,,,,,,162.15230037493166,,,,,,,,,,,,,,,,,,,,,,,,,,,,,,,,,,,,,,,,,,,,,,,,,,,,,,,,,,,,,,,,,,negc_poss,30,-15,15,-15,"[5, 2, 1, 0.5]",lin,1,1,8,2,15,84,up,0.5,1.0,1.0,30,162.14570004097186,162.15230037493166,162.6420852500014,162.6420852500014,162.71533516596537,162.71533516596537,162.71533516596537,163.27817149995826,0,,,,,,,,730109,001,2025-08-15_12h13.30.959,tilt_staircase,2024.2.4,None,2025-08-15 12h13.38.075185 -0700,
,,,,,,,,,,,,,,,,,,,,,,,163.28681879094802,,,,,,,,,,,,,,,,,,,,,,,,,,,,,,,,,,,,,,,,,,,,,,,,,,,,,,,,,,,,,,,,,,negc_negs,30,-15,15,-15,"[5, 2, 1, 0.5]",lin,1,1,8,0,15,85,down,0.5,-2.5,-2.5,-30,163.27993795799557,163.28681879094802,163.7745470829541,163.7745470829541,163.84859979094472,163.84859979094472,163.84859979094472,164.43183762498666,0,,,,,,,,730109,001,2025-08-15_12h13.30.959,tilt_staircase,2024.2.4,None,2025-08-15 12h13.38.075185 -0700,
,,,,,,,,,,,,,,,,,,,,,,,164.44128374999855,,,,,,,,,,,,,,,,,,,,,,,,,,,,,,,,,,,,,,,,,,,,,,,,,,,,,,,,,,,,,,,,,,posc_poss,30,15,15,-15,"[5, 2, 1, 0.5]",lin,1,1,8,3,15,86,up,0.5,1.5,1.5,30,164.433118582936,164.44128374999855,164.92520620801952,164.92520620801952,165.00946445798036,164.99888795800507,164.99888795800507,165.6281814579852,0,,,,,,,,730109,001,2025-08-15_12h13.30.959,tilt_staircase,2024.2.4,None,2025-08-15 12h13.38.075185 -0700,
,,,,,,,,,,,,,,,,,,,,,,,165.636394290952,,,,,,,,,,,,,,,,,,,,,,,,,,,,,,,,,,,,,,,,,,,,,,,,,,,,,,,,,,,,,,,,,,posc_noss,30,15,15,-15,"[5, 2, 1, 0.5]",lin,1,1,8,5,15,87,down,0.5,0.0,0.0,,165.62948320794385,165.636394290952,166.1254232909996,166.1254232909996,166.19875458301976,166.19875458301976,166.19875458301976,168.27796091593336,0,,,,,,,,730109,001,2025-08-15_12h13.30.959,tilt_staircase,2024.2.4,None,2025-08-15 12h13.38.075185 -0700,
,,,,,,,,,,,,,,,,,,,,,,,168.28541804093402,,,,,,,,,,,,,,,,,,,,,,,,,,,,,,,,,,,,,,,,,,,,,,,,,,,,,,,,,,,,,,,,,,posc_negs,30,15,15,-15,"[5, 2, 1, 0.5]",lin,1,1,8,1,15,88,down,0.5,-2.5,-2.5,-30,168.27902249991894,168.28541804093402,168.77461445797235,168.77461445797235,168.84860287501942,168.84860287501942,168.84860287501942,169.4670777079882,0,,,,,,,,730109,001,2025-08-15_12h13.30.959,tilt_staircase,2024.2.4,None,2025-08-15 12h13.38.075185 -0700,
,,,,,,,,,,,,,,,,,,,,,,,169.47555833298247,,,,,,,,,,,,,,,,,,,,,,,,,,,,,,,,,,,,,,,,,,,,,,,,,,,,,,,,,,,,,,,,,,negc_noss,30,-15,15,-15,"[5, 2, 1, 0.5]",lin,1,1,8,4,15,89,up,0.5,1.0,1.0,,169.4681616659509,169.47555833298247,169.96789733297192,169.96789733297192,170.0424282499589,170.0424282499589,170.0424282499589,170.64818949997425,1,,,,,,,,730109,001,2025-08-15_12h13.30.959,tilt_staircase,2024.2.4,None,2025-08-15 12h13.38.075185 -0700,
,,,,,,,,,,,,,,,,,,,,,,,170.65816095797345,,,,,,,,,,,,,,,,,,,,,,,,,,,,,,,,,,,,,,,,,,,,,,,,,,,,,,,,,,,,,,,,,,posc_poss,30,15,15,-15,"[5, 2, 1, 0.5]",lin,1,1,8,3,16,90,up,0.5,2.0,2.0,30,170.6491510409396,170.65816095797345,171.14135024999268,171.14135024999268,171.22613949992228,171.2151534159202,171.2151534159202,172.08330416597892,1,,,,,,,,730109,001,2025-08-15_12h13.30.959,tilt_staircase,2024.2.4,None,2025-08-15 12h13.38.075185 -0700,
,,,,,,,,,,,,,,,,,,,,,,,172.09126670798287,,,,,,,,,,,,,,,,,,,,,,,,,,,,,,,,,,,,,,,,,,,,,,,,,,,,,,,,,,,,,,,,,,negc_noss,30,-15,15,-15,"[5, 2, 1, 0.5]",lin,1,1,8,4,16,91,down,0.5,0.5,0.5,,172.08428970794193,172.09126670798287,172.57454437494744,172.57454437494744,172.65931004099548,172.647547832923,172.647547832923,173.2670248330105,1,,,,,,,,730109,001,2025-08-15_12h13.30.959,tilt_staircase,2024.2.4,None,2025-08-15 12h13.38.075185 -0700,
,,,,,,,,,,,,,,,,,,,,,,,173.27503212494776,,,,,,,,,,,,,,,,,,,,,,,,,,,,,,,,,,,,,,,,,,,,,,,,,,,,,,,,,,,,,,,,,,posc_noss,30,15,15,-15,"[5, 2, 1, 0.5]",lin,1,1,8,5,16,92,up,0.5,0.5,0.5,,173.26804570795503,173.27503212494776,173.76499666599557,173.76499666599557,173.84130074991845,173.84130074991845,173.84130074991845,175.6283766659908,0,,,,,,,,730109,001,2025-08-15_12h13.30.959,tilt_staircase,2024.2.4,None,2025-08-15 12h13.38.075185 -0700,
,,,,,,,,,,,,,,,,,,,,,,,175.6366899999557,,,,,,,,,,,,,,,,,,,,,,,,,,,,,,,,,,,,,,,,,,,,,,,,,,,,,,,,,,,,,,,,,,negc_poss,30,-15,15,-15,"[5, 2, 1, 0.5]",lin,1,1,8,2,16,93,up,0.5,1.5,1.5,30,175.62955441593658,175.6366899999557,176.12542141601443,176.12542141601443,176.19918804091867,176.19918804091867,176.19918804091867,177.0438817909453,1,,,,,,,,730109,001,2025-08-15_12h13.30.959,tilt_staircase,2024.2.4,None,2025-08-15 12h13.38.075185 -0700,
,,,,,,,,,,,,,,,,,,,,,,,177.04943358292803,,,,,,,,,,,,,,,,,,,,,,,,,,,,,,,,,,,,,,,,,,,,,,,,,,,,,,,,,,,,,,,,,,posc_negs,30,15,15,-15,"[5, 2, 1, 0.5]",lin,1,1,8,1,16,94,up,0.5,-2.0,-2.0,-30,177.0449405409163,177.04943358292803,177.54128779098392,177.54128779098392,177.61519820801914,177.61519820801914,177.61519820801914,178.10054349992424,1,,,,,,,,730109,001,2025-08-15_12h13.30.959,tilt_staircase,2024.2.4,None,2025-08-15 12h13.38.075185 -0700,
,,,,,,,,,,,,,,,,,,,,,,,178.1087626250228,,,,,,,,,,,,,,,,,,,,,,,,,,,,,,,,,,,,,,,,,,,,,,,,,,,,,,,,,,,,,,,,,,negc_negs,30,-15,15,-15,"[5, 2, 1, 0.5]",lin,1,1,8,0,16,95,up,0.5,-2.0,-2.0,-30,178.1016556249233,178.1087626250228,178.6011324999854,178.6011324999854,178.6758662079228,178.6758662079228,178.6758662079228,179.76661699998658,1,,,,,,,,730109,001,2025-08-15_12h13.30.959,tilt_staircase,2024.2.4,None,2025-08-15 12h13.38.075185 -0700,
,,,,,,,,,,,,,,,,,,,,,,,179.77468312496785,,,,,,,,,,,,,,,,,,,,,,,,,,,,,,,,,,,,,,,,,,,,,,,,,,,,,,,,,,,,,,,,,,posc_noss,30,15,15,-15,"[5, 2, 1, 0.5]",lin,1,1,8,5,17,96,up,0.5,1.0,1.0,,179.76761799992528,179.77468312496785,180.26741087494884,180.26741087494884,180.3427637909772,180.3427637909772,180.3427637909772,180.86089687491767,1,,,,,,,,730109,001,2025-08-15_12h13.30.959,tilt_staircase,2024.2.4,None,2025-08-15 12h13.38.075185 -0700,
,,,,,,,,,,,,,,,,,,,,,,,180.86918554094154,,,,,,,,,,,,,,,,,,,,,,,,,,,,,,,,,,,,,,,,,,,,,,,,,,,,,,,,,,,,,,,,,,posc_negs,30,15,15,-15,"[5, 2, 1, 0.5]",lin,1,1,8,1,17,97,down,0.5,-2.5,-2.5,-30,180.86230195790995,180.86918554094154,181.35886945796665,181.35886945796665,181.4297094999347,181.4297094999347,181.4297094999347,182.09453908295836,0,,,,,,,,730109,001,2025-08-15_12h13.30.959,tilt_staircase,2024.2.4,None,2025-08-15 12h13.38.075185 -0700,
,,,,,,,,,,,,,,,,,,,,,,,182.10275791597087,,,,,,,,,,,,,,,,,,,,,,,,,,,,,,,,,,,,,,,,,,,,,,,,,,,,,,,,,,,,,,,,,,negc_poss,30,-15,15,-15,"[5, 2, 1, 0.5]",lin,1,1,8,2,17,98,down,0.5,1.0,1.0,30,182.09589695790783,182.10275791597087,182.59139137493912,182.59139137493912,182.66586512501817,182.66586512501817,182.66586512501817,183.31665833294392,1,,,,,,,,730109,001,2025-08-15_12h13.30.959,tilt_staircase,2024.2.4,None,2025-08-15 12h13.38.075185 -0700,
,,,,,,,,,,,,,,,,,,,,,,,183.3252705829218,,,,,,,,,,,,,,,,,,,,,,,,,,,,,,,,,,,,,,,,,,,,,,,,,,,,,,,,,,,,,,,,,,negc_negs,30,-15,15,-15,"[5, 2, 1, 0.5]",lin,1,1,8,0,17,99,down,0.5,-2.5,-2.5,-30,183.31810195802245,183.3252705829218,183.817422040971,183.817422040971,183.89225633291062,183.89225633291062,183.89225633291062,184.6615898750024,0,,,,,,,,730109,001,2025-08-15_12h13.30.959,tilt_staircase,2024.2.4,None,2025-08-15 12h13.38.075185 -0700,
,,,,,,,,,,,,,,,,,,,,,,,184.67031870794017,,,,,,,,,,,,,,,,,,,,,,,,,,,,,,,,,,,,,,,,,,,,,,,,,,,,,,,,,,,,,,,,,,negc_noss,30,-15,15,-15,"[5, 2, 1, 0.5]",lin,1,1,8,4,17,100,down,0.5,0.0,0.0,,184.66332599997986,184.67031870794017,185.15792679099832,185.15792679099832,185.2324956660159,185.2324956660159,185.2324956660159,189.26018054096494,0,,,,,,,,730109,001,2025-08-15_12h13.30.959,tilt_staircase,2024.2.4,None,2025-08-15 12h13.38.075185 -0700,
,,,,,,,,,,,,,,,,,,,,,,,189.26831416599452,,,,,,,,,,,,,,,,,,,,,,,,,,,,,,,,,,,,,,,,,,,,,,,,,,,,,,,,,,,,,,,,,,posc_poss,30,15,15,-15,"[5, 2, 1, 0.5]",lin,1,1,8,3,17,101,down,0.5,1.5,1.5,30,189.26117604097817,189.26831416599452,189.7507277079858,189.7507277079858,189.8317657909356,189.82595362490974,189.82595362490974,190.37015391595196,1,,,,,,,,730109,001,2025-08-15_12h13.30.959,tilt_staircase,2024.2.4,None,2025-08-15 12h13.38.075185 -0700,
,,,,,,,,,,,,,,,,,,,,,,,190.37564616592135,,,,,,,,,,,,,,,,,,,,,,,,,,,,,,,,,,,,,,,,,,,,,,,,,,,,,,,,,,,,,,,,,,posc_poss,30,15,15,-15,"[5, 2, 1, 0.5]",lin,1,1,8,3,18,102,down,0.5,1.0,1.0,30,190.3711102079833,190.37564616592135,190.86737595801242,190.86737595801242,190.9478925409494,190.9478925409494,190.9478925409494,193.95345999998972,0,,,,,,,,730109,001,2025-08-15_12h13.30.959,tilt_staircase,2024.2.4,None,2025-08-15 12h13.38.075185 -0700,
,,,,,,,,,,,,,,,,,,,,,,,193.95888945797924,,,,,,,,,,,,,,,,,,,,,,,,,,,,,,,,,,,,,,,,,,,,,,,,,,,,,,,,,,,,,,,,,,negc_noss,30,-15,15,-15,"[5, 2, 1, 0.5]",lin,1,1,8,4,18,103,up,0.5,0.5,0.5,,193.9544299999252,193.95888945797924,194.4503922079457,194.4503922079457,194.53189587499946,194.52603558299597,194.52603558299597,194.97714395797811,1,,,,,,,,730109,001,2025-08-15_12h13.30.959,tilt_staircase,2024.2.4,None,2025-08-15 12h13.38.075185 -0700,
,,,,,,,,,,,,,,,,,,,,,,,194.98469508299604,,,,,,,,,,,,,,,,,,,,,,,,,,,,,,,,,,,,,,,,,,,,,,,,,,,,,,,,,,,,,,,,,,posc_noss,30,15,15,-15,"[5, 2, 1, 0.5]",lin,1,1,8,5,18,104,down,0.5,0.5,0.5,,194.97809987491928,194.98469508299604,195.4745034580119,195.4745034580119,195.54924291593488,195.54924291593488,195.54924291593488,196.2532799160108,1,,,,,,,,730109,001,2025-08-15_12h13.30.959,tilt_staircase,2024.2.4,None,2025-08-15 12h13.38.075185 -0700,
,,,,,,,,,,,,,,,,,,,,,,,196.25894087494817,,,,,,,,,,,,,,,,,,,,,,,,,,,,,,,,,,,,,,,,,,,,,,,,,,,,,,,,,,,,,,,,,,posc_negs,30,15,15,-15,"[5, 2, 1, 0.5]",lin,1,1,8,1,18,105,up,0.5,-2.0,-2.0,-30,196.25376466591842,196.25894087494817,196.74930725002196,196.74930725002196,196.82995133299846,196.82472187501844,196.82472187501844,197.41039154096507,1,,,,,,,,730109,001,2025-08-15_12h13.30.959,tilt_staircase,2024.2.4,None,2025-08-15 12h13.38.075185 -0700,
,,,,,,,,,,,,,,,,,,,,,,,197.41742533294018,,,,,,,,,,,,,,,,,,,,,,,,,,,,,,,,,,,,,,,,,,,,,,,,,,,,,,,,,,,,,,,,,,negc_negs,30,-15,15,-15,"[5, 2, 1, 0.5]",lin,1,1,8,0,18,106,up,0.5,-2.0,-2.0,-30,197.41143645800184,197.41742533294018,197.9080079579726,197.9080079579726,197.98275433294475,197.98275433294475,197.98275433294475,200.51149504096247,0,,,,,,,,730109,001,2025-08-15_12h13.30.959,tilt_staircase,2024.2.4,None,2025-08-15 12h13.38.075185 -0700,
,,,,,,,,,,,,,,,,,,,,,,,200.51982045790646,,,,,,,,,,,,,,,,,,,,,,,,,,,,,,,,,,,,,,,,,,,,,,,,,,,,,,,,,,,,,,,,,,negc_poss,30,-15,15,-15,"[5, 2, 1, 0.5]",lin,1,1,8,2,18,107,down,0.5,0.5,0.5,30,200.5128280830104,200.51982045790646,201.0081467910204,201.0081467910204,201.08051070792135,201.08051070792135,201.08051070792135,201.6985725829145,0,,,,,,,,730109,001,2025-08-15_12h13.30.959,tilt_staircase,2024.2.4,None,2025-08-15 12h13.38.075185 -0700,
,,,,,,,,,,,,,,,,,,,,,,,201.70767345791683,,,,,,,,,,,,,,,,,,,,,,,,,,,,,,,,,,,,,,,,,,,,,,,,,,,,,,,,,,,,,,,,,,posc_negs,30,15,15,-15,"[5, 2, 1, 0.5]",lin,1,1,8,1,19,108,down,0.5,-2.5,-2.5,-30,201.69958479097113,201.70767345791683,202.1923919999972,202.1923919999972,202.2759457079228,202.26467075000983,202.26467075000983,206.2943407499697,1,,,,,,,,730109,001,2025-08-15_12h13.30.959,tilt_staircase,2024.2.4,None,2025-08-15 12h13.38.075185 -0700,
,,,,,,,,,,,,,,,,,,,,,,,206.30312162498012,,,,,,,,,,,,,,,,,,,,,,,,,,,,,,,,,,,,,,,,,,,,,,,,,,,,,,,,,,,,,,,,,,posc_noss,30,15,15,-15,"[5, 2, 1, 0.5]",lin,1,1,8,5,19,109,down,0.5,0.0,0.0,,206.2960638749646,206.30312162498012,206.79142537491862,206.79142537491862,206.86312499991618,206.86312499991618,206.86312499991618,208.81194174999837,1,,,,,,,,730109,001,2025-08-15_12h13.30.959,tilt_staircase,2024.2.4,None,2025-08-15 12h13.38.075185 -0700,
,,,,,,,,,,,,,,,,,,,,,,,208.82100837491453,,,,,,,,,,,,,,,,,,,,,,,,,,,,,,,,,,,,,,,,,,,,,,,,,,,,,,,,,,,,,,,,,,negc_noss,30,-15,15,-15,"[5, 2, 1, 0.5]",lin,1,1,8,4,19,110,down,0.5,0.0,0.0,,208.81385154090822,208.82100837491453,209.3077958750073,209.3077958750073,209.38214370794594,209.38214370794594,209.38214370794594,210.81127237493638,0,,,,,,,,730109,001,2025-08-15_12h13.30.959,tilt_staircase,2024.2.4,None,2025-08-15 12h13.38.075185 -0700,
,,,,,,,,,,,,,,,,,,,,,,,210.81939079100266,,,,,,,,,,,,,,,,,,,,,,,,,,,,,,,,,,,,,,,,,,,,,,,,,,,,,,,,,,,,,,,,,,posc_poss,30,15,15,-15,"[5, 2, 1, 0.5]",lin,1,1,8,3,19,111,up,0.5,1.5,1.5,30,210.81240391591564,210.81939079100266,211.30775179096963,211.30775179096963,211.38237741601188,211.38237741601188,211.38237741601188,212.24474833300337,0,,,,,,,,730109,001,2025-08-15_12h13.30.959,tilt_staircase,2024.2.4,None,2025-08-15 12h13.38.075185 -0700,
,,,,,,,,,,,,,,,,,,,,,,,212.25343170796987,,,,,,,,,,,,,,,,,,,,,,,,,,,,,,,,,,,,,,,,,,,,,,,,,,,,,,,,,,,,,,,,,,negc_negs,30,-15,15,-15,"[5, 2, 1, 0.5]",lin,1,1,8,0,19,112,up,0.5,-1.5,-1.5,-30,212.24657462490723,212.25343170796987,212.7413624159526,212.7413624159526,212.81384049996268,212.81384049996268,212.81384049996268,213.59458375000395,1,,,,,,,,730109,001,2025-08-15_12h13.30.959,tilt_staircase,2024.2.4,None,2025-08-15 12h13.38.075185 -0700,
,,,,,,,,,,,,,,,,,,,,,,,213.6028830410214,,,,,,,,,,,,,,,,,,,,,,,,,,,,,,,,,,,,,,,,,,,,,,,,,,,,,,,,,,,,,,,,,,negc_poss,30,-15,15,-15,"[5, 2, 1, 0.5]",lin,1,1,8,2,19,113,up,0.5,1.0,1.0,30,213.59570758300833,213.6028830410214,214.09224908298347,214.09224908298347,214.1651561659528,214.1651561659528,214.1651561659528,218.18560474994592,1,,,,,,,,730109,001,2025-08-15_12h13.30.959,tilt_staircase,2024.2.4,None,2025-08-15 12h13.38.075185 -0700,
,,,,,,,,,,,,,,,,,,,,,,,218.19111770798918,,,,,,,,,,,,,,,,,,,,,,,,,,,,,,,,,,,,,,,,,,,,,,,,,,,,,,,,,,,,,,,,,,negc_noss,30,-15,15,-15,"[5, 2, 1, 0.5]",lin,1,1,8,4,20,114,up,0.5,0.5,0.5,,218.18666079093236,218.19111770798918,218.68460325000342,218.68460325000342,218.7592050830135,218.7592050830135,218.7592050830135,219.56702550000045,1,,,,,,,,730109,001,2025-08-15_12h13.30.959,tilt_staircase,2024.2.4,None,2025-08-15 12h13.38.075185 -0700,
,,,,,,,,,,,,,,,,,,,,,,,219.5751256250078,,,,,,,,,,,,,,,,,,,,,,,,,,,,,,,,,,,,,,,,,,,,,,,,,,,,,,,,,,,,,,,,,,negc_negs,30,-15,15,-15,"[5, 2, 1, 0.5]",lin,1,1,8,0,20,115,down,0.5,-2.0,-2.0,-30,219.56803187495098,219.5751256250078,220.06752762501128,220.06752762501128,220.14254095801152,220.14254095801152,220.14254095801152,221.1029463330051,1,,,,,,,,730109,001,2025-08-15_12h13.30.959,tilt_staircase,2024.2.4,None,2025-08-15 12h13.38.075185 -0700,
,,,,,,,,,,,,,,,,,,,,,,,221.1083097079536,,,,,,,,,,,,,,,,,,,,,,,,,,,,,,,,,,,,,,,,,,,,,,,,,,,,,,,,,,,,,,,,,,posc_negs,30,15,15,-15,"[5, 2, 1, 0.5]",lin,1,1,8,1,20,116,down,0.5,-3.0,-3.0,-30,221.10388900002,221.1083097079536,221.60102499998175,221.60102499998175,221.67589558300097,221.67589558300097,221.67589558300097,222.24446658301167,0,,,,,,,,730109,001,2025-08-15_12h13.30.959,tilt_staircase,2024.2.4,None,2025-08-15 12h13.38.075185 -0700,
,,,,,,,,,,,,,,,,,,,,,,,222.25252008298412,,,,,,,,,,,,,,,,,,,,,,,,,,,,,,,,,,,,,,,,,,,,,,,,,,,,,,,,,,,,,,,,,,negc_poss,30,-15,15,-15,"[5, 2, 1, 0.5]",lin,1,1,8,2,20,117,down,0.5,0.5,0.5,30,222.2456940410193,222.25252008298412,222.74109324999154,222.74109324999154,222.8157129159663,222.8157129159663,222.8157129159663,223.76067224994767,0,,,,,,,,730109,001,2025-08-15_12h13.30.959,tilt_staircase,2024.2.4,None,2025-08-15 12h13.38.075185 -0700,
,,,,,,,,,,,,,,,,,,,,,,,223.76863991597202,,,,,,,,,,,,,,,,,,,,,,,,,,,,,,,,,,,,,,,,,,,,,,,,,,,,,,,,,,,,,,,,,,posc_noss,30,15,15,-15,"[5, 2, 1, 0.5]",lin,1,1,8,5,20,118,down,0.5,-0.5,-0.5,,223.76164979091845,223.76863991597202,224.25782991596498,224.25782991596498,224.32952412497252,224.32952412497252,224.32952412497252,224.95494170801248,0,,,,,,,,730109,001,2025-08-15_12h13.30.959,tilt_staircase,2024.2.4,None,2025-08-15 12h13.38.075185 -0700,
,,,,,,,,,,,,,,,,,,,,,,,224.96162062499207,,,,,,,,,,,,,,,,,,,,,,,,,,,,,,,,,,,,,,,,,,,,,,,,,,,,,,,,,,,,,,,,,,posc_poss,30,15,15,-15,"[5, 2, 1, 0.5]",lin,1,1,8,3,20,119,up,0.5,2.0,2.0,30,224.95603987493087,224.96162062499207,225.45050841593184,225.45050841593184,225.5317881249357,225.52591470791958,225.52591470791958,226.19466724991798,1,,,,,,,,730109,001,2025-08-15_12h13.30.959,tilt_staircase,2024.2.4,None,2025-08-15 12h13.38.075185 -0700,
,,,,,,,,,,,,,,,,,,,,,,,226.20290508295875,,,,,,,,,,,,,,,,,,,,,,,,,,,,,,,,,,,,,,,,,,,,,,,,,,,,,,,,,,,,,,,,,,posc_noss,30,15,15,-15,"[5, 2, 1, 0.5]",lin,1,1,8,5,21,120,up,0.5,0.0,0.0,,226.19630529091228,226.20290508295875,226.6926324579399,226.6926324579399,226.7655964579899,226.7655964579899,226.7655964579899,227.39403462491464,0,,,,,,,,730109,001,2025-08-15_12h13.30.959,tilt_staircase,2024.2.4,None,2025-08-15 12h13.38.075185 -0700,
,,,,,,,,,,,,,,,,,,,,,,,227.40180524997413,,,,,,,,,,,,,,,,,,,,,,,,,,,,,,,,,,,,,,,,,,,,,,,,,,,,,,,,,,,,,,,,,,negc_negs,30,-15,15,-15,"[5, 2, 1, 0.5]",lin,1,1,8,0,21,121,down,0.5,-2.5,-2.5,-30,227.39502241602167,227.40180524997413,227.8910586249549,227.8910586249549,227.96572366601322,227.96572366601322,227.96572366601322,228.82788224995602,0,,,,,,,,730109,001,2025-08-15_12h13.30.959,tilt_staircase,2024.2.4,None,2025-08-15 12h13.38.075185 -0700,
,,,,,,,,,,,,,,,,,,,,,,,228.83564812492114,,,,,,,,,,,,,,,,,,,,,,,,,,,,,,,,,,,,,,,,,,,,,,,,,,,,,,,,,,,,,,,,,,negc_noss,30,-15,15,-15,"[5, 2, 1, 0.5]",lin,1,1,8,4,21,122,down,0.5,0.0,0.0,,228.82895570795517,228.83564812492114,229.32526566600427,229.32526566600427,229.39842699992005,229.39842699992005,229.39842699992005,230.22750079096295,0,,,,,,,,730109,001,2025-08-15_12h13.30.959,tilt_staircase,2024.2.4,None,2025-08-15 12h13.38.075185 -0700,
,,,,,,,,,,,,,,,,,,,,,,,230.23538450000342,,,,,,,,,,,,,,,,,,,,,,,,,,,,,,,,,,,,,,,,,,,,,,,,,,,,,,,,,,,,,,,,,,posc_negs,30,15,15,-15,"[5, 2, 1, 0.5]",lin,1,1,8,1,21,123,up,0.5,-2.5,-2.5,-30,230.22877133300062,230.23538450000342,230.72436966595706,230.72436966595706,230.79881783295423,230.79881783295423,230.79881783295423,231.66710141592193,0,,,,,,,,730109,001,2025-08-15_12h13.30.959,tilt_staircase,2024.2.4,None,2025-08-15 12h13.38.075185 -0700,
,,,,,,,,,,,,,,,,,,,,,,,231.67558670800645,,,,,,,,,,,,,,,,,,,,,,,,,,,,,,,,,,,,,,,,,,,,,,,,,,,,,,,,,,,,,,,,,,negc_poss,30,-15,15,-15,"[5, 2, 1, 0.5]",lin,1,1,8,2,21,124,up,0.5,1.0,1.0,30,231.66824779100716,231.67558670800645,232.1576949999435,232.1576949999435,232.24249812494963,232.2309502499411,232.2309502499411,232.77737725002225,0,,,,,,,,730109,001,2025-08-15_12h13.30.959,tilt_staircase,2024.2.4,None,2025-08-15 12h13.38.075185 -0700,
,,,,,,,,,,,,,,,,,,,,,,,232.7853311660001,,,,,,,,,,,,,,,,,,,,,,,,,,,,,,,,,,,,,,,,,,,,,,,,,,,,,,,,,,,,,,,,,,posc_poss,30,15,15,-15,"[5, 2, 1, 0.5]",lin,1,1,8,3,21,125,down,0.5,1.5,1.5,30,232.7784334999742,232.7853311660001,233.27544537500944,233.27544537500944,233.34834208292887,233.34834208292887,233.34834208292887,233.98314245801885,1,,,,,,,,730109,001,2025-08-15_12h13.30.959,tilt_staircase,2024.2.4,None,2025-08-15 12h13.38.075185 -0700,
,,,,,,,,,,,,,,,,,,,,,,,233.99098829098511,,,,,,,,,,,,,,,,,,,,,,,,,,,,,,,,,,,,,,,,,,,,,,,,,,,,,,,,,,,,,,,,,,posc_noss,30,15,15,-15,"[5, 2, 1, 0.5]",lin,1,1,8,5,22,126,up,0.5,0.5,0.5,,233.9842339999741,233.99098829098511,234.48424404091202,234.48424404091202,234.55886791599914,234.55886791599914,234.55886791599914,239.5944319999544,1,,,,,,,,730109,001,2025-08-15_12h13.30.959,tilt_staircase,2024.2.4,None,2025-08-15 12h13.38.075185 -0700,
,,,,,,,,,,,,,,,,,,,,,,,239.60278066596948,,,,,,,,,,,,,,,,,,,,,,,,,,,,,,,,,,,,,,,,,,,,,,,,,,,,,,,,,,,,,,,,,,posc_negs,30,15,15,-15,"[5, 2, 1, 0.5]",lin,1,1,8,1,22,127,up,0.5,-2.0,-2.0,-30,239.59562808298506,239.60278066596948,240.09185308299493,240.09185308299493,240.1653830410214,240.1653830410214,240.1653830410214,242.2277983329259,0,,,,,,,,730109,001,2025-08-15_12h13.30.959,tilt_staircase,2024.2.4,None,2025-08-15 12h13.38.075185 -0700,
,,,,,,,,,,,,,,,,,,,,,,,242.2366253749933,,,,,,,,,,,,,,,,,,,,,,,,,,,,,,,,,,,,,,,,,,,,,,,,,,,,,,,,,,,,,,,,,,posc_poss,30,15,15,-15,"[5, 2, 1, 0.5]",lin,1,1,8,3,22,128,down,0.5,1.0,1.0,30,242.2296247909544,242.2366253749933,242.7243542500073,242.7243542500073,242.79597287497018,242.79597287497018,242.79597287497018,244.1777007499477,1,,,,,,,,730109,001,2025-08-15_12h13.30.959,tilt_staircase,2024.2.4,None,2025-08-15 12h13.38.075185 -0700,
,,,,,,,,,,,,,,,,,,,,,,,244.18607662501745,,,,,,,,,,,,,,,,,,,,,,,,,,,,,,,,,,,,,,,,,,,,,,,,,,,,,,,,,,,,,,,,,,negc_noss,30,-15,15,-15,"[5, 2, 1, 0.5]",lin,1,1,8,4,22,129,up,0.5,0.5,0.5,,244.17900970799383,244.18607662501745,244.67468075000215,244.67468075000215,244.74794654094148,244.74794654094148,244.74794654094148,247.74970733292866,0,,,,,,,,730109,001,2025-08-15_12h13.30.959,tilt_staircase,2024.2.4,None,2025-08-15 12h13.38.075185 -0700,
,,,,,,,,,,,,,,,,,,,,,,,247.75812158291228,,,,,,,,,,,,,,,,,,,,,,,,,,,,,,,,,,,,,,,,,,,,,,,,,,,,,,,,,,,,,,,,,,negc_poss,30,-15,15,-15,"[5, 2, 1, 0.5]",lin,1,1,8,2,22,130,up,0.5,1.5,1.5,30,247.75089912500698,247.75812158291228,248.25036179099698,248.25036179099698,248.3255885830149,248.3255885830149,248.3255885830149,249.40014583291486,0,,,,,,,,730109,001,2025-08-15_12h13.30.959,tilt_staircase,2024.2.4,None,2025-08-15 12h13.38.075185 -0700,
,,,,,,,,,,,,,,,,,,,,,,,249.40834449999966,,,,,,,,,,,,,,,,,,,,,,,,,,,,,,,,,,,,,,,,,,,,,,,,,,,,,,,,,,,,,,,,,,negc_negs,30,-15,15,-15,"[5, 2, 1, 0.5]",lin,1,1,8,0,22,131,up,0.5,-2.0,-2.0,-30,249.40120220801327,249.40834449999966,249.9004046249902,249.9004046249902,249.97593283292372,249.97593283292372,249.97593283292372,250.59541916591115,0,,,,,,,,730109,001,2025-08-15_12h13.30.959,tilt_staircase,2024.2.4,None,2025-08-15 12h13.38.075185 -0700,
,,,,,,,,,,,,,,,,,,,,,,,250.60408562491648,,,,,,,,,,,,,,,,,,,,,,,,,,,,,,,,,,,,,,,,,,,,,,,,,,,,,,,,,,,,,,,,,,posc_poss,30,15,15,-15,"[5, 2, 1, 0.5]",lin,1,1,8,3,23,132,down,0.5,0.5,0.5,30,250.5968458330026,250.60408562491648,251.0916469579097,251.0916469579097,251.16599008301273,251.16599008301273,251.16599008301273,251.67879570799414,0,,,,,,,,730109,001,2025-08-15_12h13.30.959,tilt_staircase,2024.2.4,None,2025-08-15 12h13.38.075185 -0700,
,,,,,,,,,,,,,,,,,,,,,,,251.68679437495302,,,,,,,,,,,,,,,,,,,,,,,,,,,,,,,,,,,,,,,,,,,,,,,,,,,,,,,,,,,,,,,,,,posc_negs,30,15,15,-15,"[5, 2, 1, 0.5]",lin,1,1,8,1,23,133,up,0.5,-1.5,-1.5,-30,251.6799044579966,251.68679437495302,252.17559133295435,252.17559133295435,252.24819474993274,252.24819474993274,252.24819474993274,252.84989145793952,1,,,,,,,,730109,001,2025-08-15_12h13.30.959,tilt_staircase,2024.2.4,None,2025-08-15 12h13.38.075185 -0700,
,,,,,,,,,,,,,,,,,,,,,,,252.857793416013,,,,,,,,,,,,,,,,,,,,,,,,,,,,,,,,,,,,,,,,,,,,,,,,,,,,,,,,,,,,,,,,,,negc_negs,30,-15,15,-15,"[5, 2, 1, 0.5]",lin,1,1,8,0,23,134,up,0.5,-1.5,-1.5,-30,252.85089404101018,252.857793416013,253.351094582933,253.351094582933,253.42575329099782,253.42575329099782,253.42575329099782,254.59430854092352,1,,,,,,,,730109,001,2025-08-15_12h13.30.959,tilt_staircase,2024.2.4,None,2025-08-15 12h13.38.075185 -0700,
,,,,,,,,,,,,,,,,,,,,,,,254.60252324992325,,,,,,,,,,,,,,,,,,,,,,,,,,,,,,,,,,,,,,,,,,,,,,,,,,,,,,,,,,,,,,,,,,negc_noss,30,-15,15,-15,"[5, 2, 1, 0.5]",lin,1,1,8,4,23,135,up,0.5,1.0,1.0,,254.59562124998774,254.60252324992325,255.09216854092665,255.09216854092665,255.1651152499253,255.1651152499253,255.1651152499253,255.94552066596225,1,,,,,,,,730109,001,2025-08-15_12h13.30.959,tilt_staircase,2024.2.4,None,2025-08-15 12h13.38.075185 -0700,
,,,,,,,,,,,,,,,,,,,,,,,255.95364149997476,,,,,,,,,,,,,,,,,,,,,,,,,,,,,,,,,,,,,,,,,,,,,,,,,,,,,,,,,,,,,,,,,,posc_noss,30,15,15,-15,"[5, 2, 1, 0.5]",lin,1,1,8,5,23,136,down,0.5,0.0,0.0,,255.94668604095932,255.95364149997476,256.44115054095164,256.44115054095164,256.5135685829446,256.5135685829446,256.5135685829446,257.75012766593136,0,,,,,,,,730109,001,2025-08-15_12h13.30.959,tilt_staircase,2024.2.4,None,2025-08-15 12h13.38.075185 -0700,
,,,,,,,,,,,,,,,,,,,,,,,257.75892254093196,,,,,,,,,,,,,,,,,,,,,,,,,,,,,,,,,,,,,,,,,,,,,,,,,,,,,,,,,,,,,,,,,,negc_poss,30,-15,15,-15,"[5, 2, 1, 0.5]",lin,1,1,8,2,23,137,up,0.5,2.0,2.0,30,257.75129666598514,257.75892254093196,258.25081270793453,258.25081270793453,258.32587041601073,258.32587041601073,258.32587041601073,258.883348000003,1,,,,,,,,730109,001,2025-08-15_12h13.30.959,tilt_staircase,2024.2.4,None,2025-08-15 12h13.38.075185 -0700,
,,,,,,,,,,,,,,,,,,,,,,,258.89128924999386,,,,,,,,,,,,,,,,,,,,,,,,,,,,,,,,,,,,,,,,,,,,,,,,,,,,,,,,,,,,,,,,,,posc_noss,30,15,15,-15,"[5, 2, 1, 0.5]",lin,1,1,8,5,24,138,up,0.5,0.5,0.5,,258.88435441593174,258.89128924999386,259.38494449993595,259.38494449993595,259.4587644159328,259.4587644159328,259.4587644159328,260.4665813749889,0,,,,,,,,730109,001,2025-08-15_12h13.30.959,tilt_staircase,2024.2.4,None,2025-08-15 12h13.38.075185 -0700,
,,,,,,,,,,,,,,,,,,,,,,,260.4745411659824,,,,,,,,,,,,,,,,,,,,,,,,,,,,,,,,,,,,,,,,,,,,,,,,,,,,,,,,,,,,,,,,,,negc_negs,30,-15,15,-15,"[5, 2, 1, 0.5]",lin,1,1,8,0,24,139,down,0.5,-2.0,-2.0,-30,260.46759725001175,260.4745411659824,260.9661095829215,260.9661095829215,261.04131133295596,261.04131133295596,261.04131133295596,262.82696233293973,1,,,,,,,,730109,001,2025-08-15_12h13.30.959,tilt_staircase,2024.2.4,None,2025-08-15 12h13.38.075185 -0700,
,,,,,,,,,,,,,,,,,,,,,,,262.834955957951,,,,,,,,,,,,,,,,,,,,,,,,,,,,,,,,,,,,,,,,,,,,,,,,,,,,,,,,,,,,,,,,,,negc_noss,30,-15,15,-15,"[5, 2, 1, 0.5]",lin,1,1,8,4,24,140,down,0.5,0.5,0.5,,262.8280051659094,262.834955957951,263.32429987494834,263.32429987494834,263.39860270801,263.39860270801,263.39860270801,264.4610572080128,1,,,,,,,,730109,001,2025-08-15_12h13.30.959,tilt_staircase,2024.2.4,None,2025-08-15 12h13.38.075185 -0700,
,,,,,,,,,,,,,,,,,,,,,,,264.4697032079566,,,,,,,,,,,,,,,,,,,,,,,,,,,,,,,,,,,,,,,,,,,,,,,,,,,,,,,,,,,,,,,,,,negc_poss,30,-15,15,-15,"[5, 2, 1, 0.5]",lin,1,1,8,2,24,141,down,0.5,1.5,1.5,30,264.46261441591196,264.4697032079566,264.9576897500083,264.9576897500083,265.0325530410046,265.0325530410046,265.0325530410046,266.6663958749268,1,,,,,,,,730109,001,2025-08-15_12h13.30.959,tilt_staircase,2024.2.4,None,2025-08-15 12h13.38.075185 -0700,
,,,,,,,,,,,,,,,,,,,,,,,266.6743832909269,,,,,,,,,,,,,,,,,,,,,,,,,,,,,,,,,,,,,,,,,,,,,,,,,,,,,,,,,,,,,,,,,,posc_poss,30,15,15,-15,"[5, 2, 1, 0.5]",lin,1,1,8,3,24,142,up,0.5,1.0,1.0,30,266.66740512498654,266.6743832909269,267.1665402079234,267.1665402079234,267.24217112502083,267.24217112502083,267.24217112502083,267.8999104159884,0,,,,,,,,730109,001,2025-08-15_12h13.30.959,tilt_staircase,2024.2.4,None,2025-08-15 12h13.38.075185 -0700,
,,,,,,,,,,,,,,,,,,,,,,,267.90781004098244,,,,,,,,,,,,,,,,,,,,,,,,,,,,,,,,,,,,,,,,,,,,,,,,,,,,,,,,,,,,,,,,,,posc_negs,30,15,15,-15,"[5, 2, 1, 0.5]",lin,1,1,8,1,24,143,down,0.5,-2.0,-2.0,-30,267.9009161660215,267.90781004098244,268.400548583013,268.400548583013,268.4757682499476,268.4757682499476,268.4757682499476,269.07698679098394,1,,,,,,,,730109,001,2025-08-15_12h13.30.959,tilt_staircase,2024.2.4,None,2025-08-15 12h13.38.075185 -0700,
,,,,,,,,,,,,,,,,,,,,,,,269.08505683299154,,,,,,,,,,,,,,,,,,,,,,,,,,,,,,,,,,,,,,,,,,,,,,,,,,,,,,,,,,,,,,,,,,posc_poss,30,15,15,-15,"[5, 2, 1, 0.5]",lin,1,1,8,3,25,144,up,0.5,1.5,1.5,30,269.07825308293104,269.08505683299154,269.57457154092845,269.57457154092845,269.6484377909219,269.6484377909219,269.6484377909219,270.4104667910142,1,,,,,,,,730109,001,2025-08-15_12h13.30.959,tilt_staircase,2024.2.4,None,2025-08-15 12h13.38.075185 -0700,
,,,,,,,,,,,,,,,,,,,,,,,270.4189046249958,,,,,,,,,,,,,,,,,,,,,,,,,,,,,,,,,,,,,,,,,,,,,,,,,,,,,,,,,,,,,,,,,,negc_poss,30,-15,15,-15,"[5, 2, 1, 0.5]",lin,1,1,8,2,25,145,down,0.5,1.0,1.0,30,270.4121224579867,270.4189046249958,270.9079262909945,270.9079262909945,270.98054120794404,270.98054120794404,270.98054120794404,272.36665487498976,0,,,,,,,,730109,001,2025-08-15_12h13.30.959,tilt_staircase,2024.2.4,None,2025-08-15 12h13.38.075185 -0700,
,,,,,,,,,,,,,,,,,,,,,,,272.37456549995113,,,,,,,,,,,,,,,,,,,,,,,,,,,,,,,,,,,,,,,,,,,,,,,,,,,,,,,,,,,,,,,,,,negc_negs,30,-15,15,-15,"[5, 2, 1, 0.5]",lin,1,1,8,0,25,146,down,0.5,-2.5,-2.5,-30,272.36770083301235,272.37456549995113,272.8673091249075,272.8673091249075,272.94239699991886,272.94239699991886,272.94239699991886,273.49469554098323,0,,,,,,,,730109,001,2025-08-15_12h13.30.959,tilt_staircase,2024.2.4,None,2025-08-15 12h13.38.075185 -0700,
,,,,,,,,,,,,,,,,,,,,,,,273.50365487497766,,,,,,,,,,,,,,,,,,,,,,,,,,,,,,,,,,,,,,,,,,,,,,,,,,,,,,,,,,,,,,,,,,posc_negs,30,15,15,-15,"[5, 2, 1, 0.5]",lin,1,1,8,1,25,147,down,0.5,-2.5,-2.5,-30,273.4960947079817,273.50365487497766,273.9909493329469,273.9909493329469,274.06579599995166,274.06579599995166,274.06579599995166,274.6447009999538,0,,,,,,,,730109,001,2025-08-15_12h13.30.959,tilt_staircase,2024.2.4,None,2025-08-15 12h13.38.075185 -0700,
,,,,,,,,,,,,,,,,,,,,,,,274.65254320797976,,,,,,,,,,,,,,,,,,,,,,,,,,,,,,,,,,,,,,,,,,,,,,,,,,,,,,,,,,,,,,,,,,negc_noss,30,-15,15,-15,"[5, 2, 1, 0.5]",lin,1,1,8,4,25,148,down,0.5,0.0,0.0,,274.6457554999506,274.65254320797976,275.141136082937,275.141136082937,275.2147878749529,275.2147878749529,275.2147878749529,275.76120249996893,0,,,,,,,,730109,001,2025-08-15_12h13.30.959,tilt_staircase,2024.2.4,None,2025-08-15 12h13.38.075185 -0700,
,,,,,,,,,,,,,,,,,,,,,,,275.7691881660139,,,,,,,,,,,,,,,,,,,,,,,,,,,,,,,,,,,,,,,,,,,,,,,,,,,,,,,,,,,,,,,,,,posc_noss,30,15,15,-15,"[5, 2, 1, 0.5]",lin,1,1,8,5,25,149,up,0.5,1.0,1.0,,275.76236220798455,275.7691881660139,276.2577733750222,276.2577733750222,276.33173641597386,276.33173641597386,276.33173641597386,278.103634124971,0,,,,,,,,730109,001,2025-08-15_12h13.30.959,tilt_staircase,2024.2.4,None,2025-08-15 12h13.38.075185 -0700,
,,,,,,,,,,,,,,,,,,,,,,,,,,,,,,,,,,,,,,,,,,,,,,,,,,,,,,,,,,,,,,,,,,,,,,,,,,,,,,,,,,,,,,,,,,,,,,,,,,,,,,,,,,,,,,,,,,,,278.10376220801845,278.11151112499647,278.11151112499647,278.8498016250087,left,0.7346670830156654,None,730109,001,2025-08-15_12h13.30.959,tilt_staircase,2024.2.4,None,2025-08-15 12h13.38.075185 -0700,
