center,surround,correct,thisN,thisTrialN,thisRepN,key_resp_3.keys,key_resp_3.corr,key_resp_3.rt,key_resp_3.duration,key_resp_7.keys,key_resp_7.rt,key_resp_7.duration,key_resp_4.keys,key_resp_4.corr,key_resp_4.rt,key_resp_4.duration,practice_no_time.thisRepN,practice_no_time.thisTrialN,practice_no_time.thisN,practice_no_time.thisIndex,practice_timed.thisRepN,practice_timed.thisTrialN,practice_timed.thisN,practice_timed.thisIndex,thisRow.t,notes,instr.started,text_5.started,key_resp_2.started,instr.stopped,key_resp_2.keys,key_resp_2.rt,key_resp_2.duration,instr2.started,text_6.started,key_resp_6.started,instr2.stopped,key_resp_6.keys,key_resp_6.rt,key_resp_6.duration,practice_trial.started,key_resp_3.started,text_9.started,surround_practice.started,center_practice.started,text_9.stopped,surround_practice.stopped,center_practice.stopped,text_11.started,practice_trial.stopped,practice_no_time.key_resp_3.keys,practice_no_time.key_resp_3.corr,practice_no_time.key_resp_3.rt,practice_no_time.key_resp_3.duration,practice_feedback.started,text_7.started,key_resp_7.started,practice_feedback.stopped,practice_no_time.key_resp_7.keys,practice_no_time.key_resp_7.rt,practice_no_time.key_resp_7.duration,instr3.started,text_8.started,key_resp_5.started,instr3.stopped,key_resp_5.keys,key_resp_5.rt,key_resp_5.duration,practice_trial_timed.started,key_resp_4.started,text_10.started,surround_practice_2.started,center_practice_2.started,text_10.stopped,surround_practice_2.stopped,center_practice_2.stopped,text_12.started,practice_trial_timed.stopped,practice_timed.key_resp_4.keys,practice_timed.key_resp_4.corr,practice_timed.key_resp_4.rt,practice_timed.key_resp_4.duration,practice_timed.key_resp_7.keys,practice_timed.key_resp_7.rt,practice_timed.key_resp_7.duration,start_instr.started,text_13.started,key_resp_8.started,start_instr.stopped,key_resp_8.keys,key_resp_8.rt,key_resp_8.duration,trials.label,trials.nReps,trials.startVal,trials.maxVal,trials.minVal,trials.stepSizes,trials.stepType,trials.nUp,trials.nDown,trials.nReversals,trials.thisIndex,trials.thisRepN,trials.thisN,trials.direction,trials.stepSize,trials.intensity,center_angle,surround_angle,trial.started,resp.started,text_2.started,surround_grating.started,center_grating.started,surround_grating.stopped,center_grating.stopped,text_3.started,text_2.stopped,trial.stopped,trials.response,end.started,text_4.started,key_resp.started,end.stopped,key_resp.keys,key_resp.rt,key_resp.duration,participant,session,date,expName,psychopyVersion,frameRate,expStart,
,,,,,,,,,,,,,,,,,,,,,,,,,,,0.014601083938032389,0.019244750030338764,0.019244750030338764,29.55341920896899,space,29.4878642919939,None,,,,,,,,,,,,,,,,,,,,,,,,,,,,,,,,,,,,,,,,,,,,,,,,,,,,,,,,,,,,,,,,,,,,,,,,,,,,,,,,,,,,,,,,,,,,,,,,781732,001,2025-08-14_12h14.22.907,tilt_staircase,2024.2.4,None,2025-08-14 12h14.28.946277 -0700,
,,,,,,,,,,,,,,,,,,,,,,,,,,,,,,,,,,29.55355358403176,29.56197883398272,29.56197883398272,29.947017916943878,space,0.37467475002631545,None,,,,,,,,,,,,,,,,,,,,,,,,,,,,,,,,,,,,,,,,,,,,,,,,,,,,,,,,,,,,,,,,,,,,,,,,,,,,,,,,,,,,,,,,,781732,001,2025-08-14_12h14.22.907,tilt_staircase,2024.2.4,None,2025-08-14 12h14.28.946277 -0700,
30,0,right,0,0,0,right,1,1.8873012498952448,None,space,0.16419404093176126,None,,,,,0,0,0,0,,,,,29.968211874947883,,,,,,,,,,,,,,,,29.95754641701933,29.968211874947883,29.968211874947883,30.44447999994736,30.44447999994736,30.465669166995212,31.432301542023197,31.432301542023197,31.444528374937363,31.86381791695021,right,1,1.8873012498952448,None,31.8677531669382,31.921010666992515,31.921010666992515,32.09701775002759,space,0.16419404093176126,None,,,,,,,,,,,,,,,,,,,,,,,,,,,,,,,,,,,,,,,,,,,,,,,,,,,,,,,,,,,,,,,,,,,,781732,001,2025-08-14_12h14.22.907,tilt_staircase,2024.2.4,None,2025-08-14 12h14.28.946277 -0700,
-30,0,left,1,1,0,left,1,0.8861095410538837,None,space,0.13018291594926268,None,,,,,0,1,1,1,,,,,32.10133358393796,,,,,,,,,,,,,,,,32.0971936249407,32.10133358393796,32.10133358393796,32.594504292006604,32.594504292006604,32.599180958932266,,,,32.997342166956514,left,1,0.8861095410538837,None,32.997400625026785,33.00112283392809,33.00112283392809,33.13448624999728,space,0.13018291594926268,None,,,,,,,,,,,,,,,,,,,,,,,,,,,,,,,,,,,,,,,,,,,,,,,,,,,,,,,,,,,,,,,,,,,,781732,001,2025-08-14_12h14.22.907,tilt_staircase,2024.2.4,None,2025-08-14 12h14.28.946277 -0700,
30,60,right,2,2,0,right,1,1.004067208035849,None,space,0.17174699995666742,None,,,,,0,2,2,2,,,,,33.14463891694322,,,,,,,,,,,,,,,,33.13465549994726,33.14463891694322,33.14463891694322,33.632580249919556,33.632580249919556,33.632580249919556,,,,34.15216924995184,right,1,1.004067208035849,None,34.15222575003281,34.161155416979454,34.161155416979454,34.33548695896752,space,0.17174699995666742,None,,,,,,,,,,,,,,,,,,,,,,,,,,,,,,,,,,,,,,,,,,,,,,,,,,,,,,,,,,,,,,,,,,,,781732,001,2025-08-14_12h14.22.907,tilt_staircase,2024.2.4,None,2025-08-14 12h14.28.946277 -0700,
-30,-60,left,3,3,0,left,1,0.8711564170662314,None,space,0.12879874999634922,None,,,,,0,3,3,3,,,,,34.34445679199416,,,,,,,,,,,,,,,,34.33566120895557,34.34445679199416,34.34445679199416,34.8325209999457,34.8325209999457,34.8325209999457,,,,35.218136416981,left,1,0.8711564170662314,None,35.21818758395966,35.22776699997485,35.22776699997485,35.36344583402388,space,0.12879874999634922,None,,,,,,,,,,,,,,,,,,,,,,,,,,,,,,,,,,,,,,,,,,,,,,,,,,,,,,,,,,,,,,,,,,,,781732,001,2025-08-14_12h14.22.907,tilt_staircase,2024.2.4,None,2025-08-14 12h14.28.946277 -0700,
,,,,,,,,,,,,,,,,,,,,,,,,,,,,,,,,,,,,,,,,,,,,,,,,,,,,,,,,,,,,,,35.363539499929175,35.36812745896168,35.36812745896168,38.19716291700024,space,2.826947332941927,None,,,,,,,,,,,,,,,,,,,,,,,,,,,,,,,,,,,,,,,,,,,,,,,,,,,,,,,,,,,,,781732,001,2025-08-14_12h14.22.907,tilt_staircase,2024.2.4,None,2025-08-14 12h14.28.946277 -0700,
-30,-60,left,0,0,0,,,,,space,0.14489704195875674,None,left,1,1.0012871669605374,None,,,,,0,0,0,0,38.21363108395599,,,,,,,,,,,,,,,,,,,,,,,,,,,,,,39.21819337492343,39.22773049992975,39.22773049992975,39.380270958994515,,,,,,,,,,,38.20843195891939,38.21363108395599,38.21363108395599,38.69446229201276,38.69446229201276,38.71101995895151,38.766225624945946,38.766225624945946,38.766225624945946,39.21813375002239,left,1,1.0012871669605374,None,space,0.14489704195875674,None,,,,,,,,,,,,,,,,,,,,,,,,,,,,,,,,,,,,,,,,,,,,781732,001,2025-08-14_12h14.22.907,tilt_staircase,2024.2.4,None,2025-08-14 12h14.28.946277 -0700,
-30,0,left,1,1,0,,,,,space,0.14784604194574058,None,left,1,0.8767071249894798,None,,,,,0,1,1,1,39.384521916974336,,,,,,,,,,,,,,,,,,,,,,,,,,,,,,40.264028874924406,40.26778316695709,40.26778316695709,40.41863391699735,,,,,,,,,,,39.38045874994714,39.384521916974336,39.384521916974336,39.8778592919698,39.8778592919698,39.88307641702704,39.94877716701012,39.94877716701012,39.94877716701012,40.26396949996706,left,1,0.8767071249894798,None,space,0.14784604194574058,None,,,,,,,,,,,,,,,,,,,,,,,,,,,,,,,,,,,,,,,,,,,,781732,001,2025-08-14_12h14.22.907,tilt_staircase,2024.2.4,None,2025-08-14 12h14.28.946277 -0700,
30,60,right,2,2,0,,,,,space,0.14089737506583333,None,right,1,0.7802292909473181,None,,,,,0,2,2,2,40.42785295902286,,,,,,,,,,,,,,,,,,,,,,,,,,,,,,41.214008625014685,41.21771637501661,41.21771637501661,41.36379474995192,,,,,,,,,,,40.41882329201326,40.42785295902286,40.42785295902286,40.91612470895052,40.91612470895052,40.91612470895052,40.994422958930954,40.994422958930954,40.994422958930954,41.21394558402244,right,1,0.7802292909473181,None,space,0.14089737506583333,None,,,,,,,,,,,,,,,,,,,,,,,,,,,,,,,,,,,,,,,,,,,,781732,001,2025-08-14_12h14.22.907,tilt_staircase,2024.2.4,None,2025-08-14 12h14.28.946277 -0700,
30,0,right,3,3,0,,,,,space,0.10554716701153666,None,right,1,0.7962479160632938,None,,,,,0,3,3,3,41.36800645897165,,,,,,,,,,,,,,,,,,,,,,,,,,,,,,42.168252749950625,42.17780941701494,42.17780941701494,42.28468133392744,,,,,,,,,,,41.36398949997965,41.36800645897165,41.36800645897165,41.8609873339301,41.8609873339301,41.86559966695495,41.932067750021815,41.932067750021815,41.932067750021815,42.168196333921514,right,1,0.7962479160632938,None,space,0.10554716701153666,None,,,,,,,,,,,,,,,,,,,,,,,,,,,,,,,,,,,,,,,,,,,,781732,001,2025-08-14_12h14.22.907,tilt_staircase,2024.2.4,None,2025-08-14 12h14.28.946277 -0700,
,,,,,,,,,,,,,,,,,,,,,,,,,,,,,,,,,,,,,,,,,,,,,,,,,,,,,,,,,,,,,,,,,,,,,,,,,,,,,,,,,,,,,,42.2847712499788,42.29448279202916,42.29448279202916,45.380784041946754,space,3.0799966669874266,None,,,,,,,,,,,,,,,,,,,,,,,,,,,,,,,,,,,,,781732,001,2025-08-14_12h14.22.907,tilt_staircase,2024.2.4,None,2025-08-14 12h14.28.946277 -0700,
,,,,,,,,,,,,,,,,,,,,,,,,,45.53933879197575,,,,,,,,,,,,,,,,,,,,,,,,,,,,,,,,,,,,,,,,,,,,,,,,,,,,,,,,,,,,,,,,,,,,high_start,50,20,30,-30,"[5, 2, 1, 0.5, 0.25, 0.1]",lin,1,1,7,0,1,0,start,5,20,20,-10,45.53399637492839,45.53933879197575,45.53933879197575,45.87772274995223,45.87772274995223,45.949342541978694,45.949342541978694,45.949342541978694,46.03217262495309,46.83521229203325,1,,,,,,,,781732,001,2025-08-14_12h14.22.907,tilt_staircase,2024.2.4,None,2025-08-14 12h14.28.946277 -0700,
,,,,,,,,,,,,,,,,,,,,,,,,,46.844438749947585,,,,,,,,,,,,,,,,,,,,,,,,,,,,,,,,,,,,,,,,,,,,,,,,,,,,,,,,,,,,,,,,,,,,low_start,50,-20,30,-30,"[5, 2, 1, 0.5, 0.25, 0.1]",lin,1,1,7,1,1,1,start,5,-20,-20,10,46.835413999971934,46.844438749947585,46.844438749947585,47.33247758401558,47.33247758401558,47.411052334005944,47.411052334005944,47.411052334005944,47.33247758401558,48.713314249995165,0,,,,,,,,781732,001,2025-08-14_12h14.22.907,tilt_staircase,2024.2.4,None,2025-08-14 12h14.28.946277 -0700,
,,,,,,,,,,,,,,,,,,,,,,,,,48.71699537499808,,,,,,,,,,,,,,,,,,,,,,,,,,,,,,,,,,,,,,,,,,,,,,,,,,,,,,,,,,,,,,,,,,,,high_start,50,20,30,-30,"[5, 2, 1, 0.5, 0.25, 0.1]",lin,1,1,7,0,2,2,down,5,15,15,-15,48.713489208952524,48.71699537499808,48.71699537499808,49.21111004194245,49.21111004194245,49.282162499963306,49.282162499963306,49.282162499963306,49.21584162500221,49.934658583952114,1,,,,,,,,781732,001,2025-08-14_12h14.22.907,tilt_staircase,2024.2.4,None,2025-08-14 12h14.28.946277 -0700,
,,,,,,,,,,,,,,,,,,,,,,,,,49.94445133395493,,,,,,,,,,,,,,,,,,,,,,,,,,,,,,,,,,,,,,,,,,,,,,,,,,,,,,,,,,,,,,,,,,,,low_start,50,-20,30,-30,"[5, 2, 1, 0.5, 0.25, 0.1]",lin,1,1,7,1,2,3,up,5,-15,-15,15,49.934834291925654,49.94445133395493,49.94445133395493,50.43266220903024,50.43266220903024,50.51104154193308,50.51104154193308,50.51104154193308,50.43266220903024,51.39722670894116,0,,,,,,,,781732,001,2025-08-14_12h14.22.907,tilt_staircase,2024.2.4,None,2025-08-14 12h14.28.946277 -0700,
,,,,,,,,,,,,,,,,,,,,,,,,,51.401271499926224,,,,,,,,,,,,,,,,,,,,,,,,,,,,,,,,,,,,,,,,,,,,,,,,,,,,,,,,,,,,,,,,,,,,low_start,50,-20,30,-30,"[5, 2, 1, 0.5, 0.25, 0.1]",lin,1,1,7,1,3,4,up,5,-10,-10,20,51.3974408749491,51.401271499926224,51.401271499926224,51.89437450002879,51.89437450002879,51.965599083923735,51.965599083923735,51.965599083923735,51.899206583970226,52.501465208944865,0,,,,,,,,781732,001,2025-08-14_12h14.22.907,tilt_staircase,2024.2.4,None,2025-08-14 12h14.28.946277 -0700,
,,,,,,,,,,,,,,,,,,,,,,,,,52.5111020419281,,,,,,,,,,,,,,,,,,,,,,,,,,,,,,,,,,,,,,,,,,,,,,,,,,,,,,,,,,,,,,,,,,,,high_start,50,20,30,-30,"[5, 2, 1, 0.5, 0.25, 0.1]",lin,1,1,7,0,3,5,down,5,10,10,-20,52.50164849997964,52.5111020419281,52.5111020419281,52.99944804201368,52.99944804201368,53.07759870903101,53.07759870903101,53.07759870903101,52.99944804201368,53.58552045898978,1,,,,,,,,781732,001,2025-08-14_12h14.22.907,tilt_staircase,2024.2.4,None,2025-08-14 12h14.28.946277 -0700,
,,,,,,,,,,,,,,,,,,,,,,,,,53.59447495895438,,,,,,,,,,,,,,,,,,,,,,,,,,,,,,,,,,,,,,,,,,,,,,,,,,,,,,,,,,,,,,,,,,,,high_start,50,20,30,-30,"[5, 2, 1, 0.5, 0.25, 0.1]",lin,1,1,7,0,4,6,down,5,5,5,-25,53.58571466698777,53.59447495895438,53.59447495895438,54.08249520894606,54.08249520894606,54.16099633392878,54.16099633392878,54.16099633392878,54.08249520894606,54.63048049993813,1,,,,,,,,781732,001,2025-08-14_12h14.22.907,tilt_staircase,2024.2.4,None,2025-08-14 12h14.28.946277 -0700,
,,,,,,,,,,,,,,,,,,,,,,,,,54.63438183395192,,,,,,,,,,,,,,,,,,,,,,,,,,,,,,,,,,,,,,,,,,,,,,,,,,,,,,,,,,,,,,,,,,,,low_start,50,-20,30,-30,"[5, 2, 1, 0.5, 0.25, 0.1]",lin,1,1,7,1,4,7,up,5,-5,-5,25,54.630665833945386,54.63438183395192,54.63438183395192,55.12778820900712,55.12778820900712,55.199036499951035,55.199036499951035,55.199036499951035,55.13266591692809,55.66827933397144,0,,,,,,,,781732,001,2025-08-14_12h14.22.907,tilt_staircase,2024.2.4,None,2025-08-14 12h14.28.946277 -0700,
,,,,,,,,,,,,,,,,,,,,,,,,,55.677702874992974,,,,,,,,,,,,,,,,,,,,,,,,,,,,,,,,,,,,,,,,,,,,,,,,,,,,,,,,,,,,,,,,,,,,low_start,50,-20,30,-30,"[5, 2, 1, 0.5, 0.25, 0.1]",lin,1,1,7,1,5,8,up,5,0,0,30,55.6684763339581,55.677702874992974,55.677702874992974,56.16579133400228,56.16579133400228,56.24438674992416,56.24438674992416,56.24438674992416,56.16579133400228,57.16407516703475,0,,,,,,,,781732,001,2025-08-14_12h14.22.907,tilt_staircase,2024.2.4,None,2025-08-14 12h14.28.946277 -0700,
,,,,,,,,,,,,,,,,,,,,,,,,,57.16809012496378,,,,,,,,,,,,,,,,,,,,,,,,,,,,,,,,,,,,,,,,,,,,,,,,,,,,,,,,,,,,,,,,,,,,high_start,50,20,30,-30,"[5, 2, 1, 0.5, 0.25, 0.1]",lin,1,1,7,0,5,9,down,5,0,0,-30,57.16427395900246,57.16809012496378,57.16809012496378,57.661043583997525,57.661043583997525,57.73210691695567,57.73210691695567,57.73210691695567,57.665733208996244,58.347016499959864,0,,,,,,,,781732,001,2025-08-14_12h14.22.907,tilt_staircase,2024.2.4,None,2025-08-14 12h14.28.946277 -0700,
,,,,,,,,,,,,,,,,,,,,,,,,,58.35097508400213,,,,,,,,,,,,,,,,,,,,,,,,,,,,,,,,,,,,,,,,,,,,,,,,,,,,,,,,,,,,,,,,,,,,low_start,50,-20,30,-30,"[5, 2, 1, 0.5, 0.25, 0.1]",lin,1,1,7,1,6,10,up,5,5,5,35,58.34721266699489,58.35097508400213,58.35097508400213,58.84442350000609,58.84442350000609,58.91600170894526,58.91600170894526,58.91600170894526,58.8491590420017,59.41365516697988,1,,,,,,,,781732,001,2025-08-14_12h14.22.907,tilt_staircase,2024.2.4,None,2025-08-14 12h14.28.946277 -0700,
,,,,,,,,,,,,,,,,,,,,,,,,,59.417442959034815,,,,,,,,,,,,,,,,,,,,,,,,,,,,,,,,,,,,,,,,,,,,,,,,,,,,,,,,,,,,,,,,,,,,high_start,50,20,30,-30,"[5, 2, 1, 0.5, 0.25, 0.1]",lin,1,1,7,0,6,11,up,2,2,2,-28,59.41383570898324,59.417442959034815,59.417442959034815,59.91106279194355,59.91106279194355,59.982078542001545,59.982078542001545,59.982078542001545,59.91579845896922,60.53523983398918,1,,,,,,,,781732,001,2025-08-14_12h14.22.907,tilt_staircase,2024.2.4,None,2025-08-14 12h14.28.946277 -0700,
,,,,,,,,,,,,,,,,,,,,,,,,,60.54440691694617,,,,,,,,,,,,,,,,,,,,,,,,,,,,,,,,,,,,,,,,,,,,,,,,,,,,,,,,,,,,,,,,,,,,high_start,50,20,30,-30,"[5, 2, 1, 0.5, 0.25, 0.1]",lin,1,1,7,0,7,12,down,1,1,1,-29,60.53541975002736,60.54440691694617,60.54440691694617,61.03265766694676,61.03265766694676,61.11112154193688,61.11112154193688,61.11112154193688,61.03265766694676,61.83467137499247,1,,,,,,,,781732,001,2025-08-14_12h14.22.907,tilt_staircase,2024.2.4,None,2025-08-14 12h14.28.946277 -0700,
,,,,,,,,,,,,,,,,,,,,,,,,,61.844414833933115,,,,,,,,,,,,,,,,,,,,,,,,,,,,,,,,,,,,,,,,,,,,,,,,,,,,,,,,,,,,,,,,,,,,low_start,50,-20,30,-30,"[5, 2, 1, 0.5, 0.25, 0.1]",lin,1,1,7,1,7,13,down,2,3,3,33,61.83484949998092,61.844414833933115,61.844414833933115,62.33254295901861,62.33254295901861,62.41107024997473,62.41107024997473,62.41107024997473,62.33254295901861,62.963670458993874,1,,,,,,,,781732,001,2025-08-14_12h14.22.907,tilt_staircase,2024.2.4,None,2025-08-14 12h14.28.946277 -0700,
,,,,,,,,,,,,,,,,,,,,,,,,,62.96761824993882,,,,,,,,,,,,,,,,,,,,,,,,,,,,,,,,,,,,,,,,,,,,,,,,,,,,,,,,,,,,,,,,,,,,low_start,50,-20,30,-30,"[5, 2, 1, 0.5, 0.25, 0.1]",lin,1,1,7,1,8,14,down,2,1,1,31,62.96386270900257,62.96761824993882,62.96761824993882,63.46109841694124,63.46109841694124,63.532290459028445,63.532290459028445,63.532290459028445,63.46572108392138,64.36347641702741,1,,,,,,,,781732,001,2025-08-14_12h14.22.907,tilt_staircase,2024.2.4,None,2025-08-14 12h14.28.946277 -0700,
,,,,,,,,,,,,,,,,,,,,,,,,,64.36721016699448,,,,,,,,,,,,,,,,,,,,,,,,,,,,,,,,,,,,,,,,,,,,,,,,,,,,,,,,,,,,,,,,,,,,high_start,50,20,30,-30,"[5, 2, 1, 0.5, 0.25, 0.1]",lin,1,1,7,0,8,15,down,1,0,0,-30,64.36365204199683,64.36721016699448,64.36721016699448,64.86115799995605,64.86115799995605,64.93382295896299,64.93382295896299,64.93382295896299,64.86629495897796,66.03066679195035,1,,,,,,,,781732,001,2025-08-14_12h14.22.907,tilt_staircase,2024.2.4,None,2025-08-14 12h14.28.946277 -0700,
,,,,,,,,,,,,,,,,,,,,,,,,,66.03458404203411,,,,,,,,,,,,,,,,,,,,,,,,,,,,,,,,,,,,,,,,,,,,,,,,,,,,,,,,,,,,,,,,,,,,high_start,50,20,30,-30,"[5, 2, 1, 0.5, 0.25, 0.1]",lin,1,1,7,0,9,16,down,1,-1,-1,-31,66.03086245898157,66.03458404203411,66.03458404203411,66.52775216696318,66.52775216696318,66.59960366692394,66.59960366692394,66.59960366692394,66.53232779202517,67.1636842089938,0,,,,,,,,781732,001,2025-08-14_12h14.22.907,tilt_staircase,2024.2.4,None,2025-08-14 12h14.28.946277 -0700,
,,,,,,,,,,,,,,,,,,,,,,,,,67.1675479169935,,,,,,,,,,,,,,,,,,,,,,,,,,,,,,,,,,,,,,,,,,,,,,,,,,,,,,,,,,,,,,,,,,,,low_start,50,-20,30,-30,"[5, 2, 1, 0.5, 0.25, 0.1]",lin,1,1,7,1,9,17,down,2,-1,-1,29,67.16387679195032,67.1675479169935,67.1675479169935,67.66104174999055,67.66104174999055,67.73190191702452,67.73190191702452,67.73190191702452,67.66590945899952,68.26361991697922,0,,,,,,,,781732,001,2025-08-14_12h14.22.907,tilt_staircase,2024.2.4,None,2025-08-14 12h14.28.946277 -0700,
,,,,,,,,,,,,,,,,,,,,,,,,,68.26746124995407,,,,,,,,,,,,,,,,,,,,,,,,,,,,,,,,,,,,,,,,,,,,,,,,,,,,,,,,,,,,,,,,,,,,high_start,50,20,30,-30,"[5, 2, 1, 0.5, 0.25, 0.1]",lin,1,1,7,0,10,18,up,0.5,-0.5,-0.5,-30.5,68.26380712492391,68.26746124995407,68.26746124995407,68.76090941694565,68.76090941694565,68.83192870893981,68.83192870893981,68.83192870893981,68.76539408392273,69.44721070898231,0,,,,,,,,781732,001,2025-08-14_12h14.22.907,tilt_staircase,2024.2.4,None,2025-08-14 12h14.28.946277 -0700,
,,,,,,,,,,,,,,,,,,,,,,,,,69.45117949997075,,,,,,,,,,,,,,,,,,,,,,,,,,,,,,,,,,,,,,,,,,,,,,,,,,,,,,,,,,,,,,,,,,,,low_start,50,-20,30,-30,"[5, 2, 1, 0.5, 0.25, 0.1]",lin,1,1,7,1,10,19,up,1,0,0,30,69.44739174994174,69.45117949997075,69.45117949997075,69.94457987498026,69.94457987498026,70.01678641699255,70.01678641699255,70.01678641699255,69.94978899997659,72.18486554198898,1,,,,,,,,781732,001,2025-08-14_12h14.22.907,tilt_staircase,2024.2.4,None,2025-08-14 12h14.28.946277 -0700,
,,,,,,,,,,,,,,,,,,,,,,,,,72.1943942499347,,,,,,,,,,,,,,,,,,,,,,,,,,,,,,,,,,,,,,,,,,,,,,,,,,,,,,,,,,,,,,,,,,,,high_start,50,20,30,-30,"[5, 2, 1, 0.5, 0.25, 0.1]",lin,1,1,7,0,11,20,up,0.5,0.0,0.0,-30.0,72.18505512492266,72.1943942499347,72.1943942499347,72.68306733400095,72.68306733400095,72.76106758392416,72.76106758392416,72.76106758392416,72.68306733400095,73.33059383393265,0,,,,,,,,781732,001,2025-08-14_12h14.22.907,tilt_staircase,2024.2.4,None,2025-08-14 12h14.28.946277 -0700,
,,,,,,,,,,,,,,,,,,,,,,,,,73.33457558392547,,,,,,,,,,,,,,,,,,,,,,,,,,,,,,,,,,,,,,,,,,,,,,,,,,,,,,,,,,,,,,,,,,,,low_start,50,-20,30,-30,"[5, 2, 1, 0.5, 0.25, 0.1]",lin,1,1,7,1,11,21,down,0.5,-0.5,-0.5,29.5,73.33078474993818,73.33457558392547,73.33457558392547,73.82761858392041,73.82761858392041,73.90005429193843,73.90005429193843,73.90005429193843,73.83283387497067,74.32088212494273,0,,,,,,,,781732,001,2025-08-14_12h14.22.907,tilt_staircase,2024.2.4,None,2025-08-14 12h14.28.946277 -0700,
,,,,,,,,,,,,,,,,,,,,,,,,,74.32758933398873,,,,,,,,,,,,,,,,,,,,,,,,,,,,,,,,,,,,,,,,,,,,,,,,,,,,,,,,,,,,,,,,,,,,high_start,50,20,30,-30,"[5, 2, 1, 0.5, 0.25, 0.1]",lin,1,1,7,0,12,22,up,0.5,0.5,0.5,-29.5,74.32118483399972,74.32758933398873,74.32758933398873,74.81574070896022,74.81574070896022,74.89437162491959,74.89437162491959,74.89876050001476,74.81574070896022,75.31878949992824,0,,,,,,,,781732,001,2025-08-14_12h14.22.907,tilt_staircase,2024.2.4,None,2025-08-14 12h14.28.946277 -0700,
,,,,,,,,,,,,,,,,,,,,,,,,,75.32774487498682,,,,,,,,,,,,,,,,,,,,,,,,,,,,,,,,,,,,,,,,,,,,,,,,,,,,,,,,,,,,,,,,,,,,low_start,50,-20,30,-30,"[5, 2, 1, 0.5, 0.25, 0.1]",lin,1,1,7,1,12,23,up,0.25,-0.25,-0.25,29.75,75.31897358398419,75.32774487498682,75.32774487498682,75.81639237492345,75.81639237492345,75.89430745900609,75.89430745900609,75.89430745900609,75.81639237492345,76.41356799995992,0,,,,,,,,781732,001,2025-08-14_12h14.22.907,tilt_staircase,2024.2.4,None,2025-08-14 12h14.28.946277 -0700,
,,,,,,,,,,,,,,,,,,,,,,,,,76.41744716698304,,,,,,,,,,,,,,,,,,,,,,,,,,,,,,,,,,,,,,,,,,,,,,,,,,,,,,,,,,,,,,,,,,,,high_start,50,20,30,-30,"[5, 2, 1, 0.5, 0.25, 0.1]",lin,1,1,7,0,13,24,up,0.5,1.0,1.0,-29.0,76.41375887498725,76.41744716698304,76.41744716698304,76.9110793339787,76.9110793339787,76.98284029192291,76.98284029192291,76.98284029192291,76.91584745899308,77.74729595892131,1,,,,,,,,781732,001,2025-08-14_12h14.22.907,tilt_staircase,2024.2.4,None,2025-08-14 12h14.28.946277 -0700,
,,,,,,,,,,,,,,,,,,,,,,,,,77.75150541693438,,,,,,,,,,,,,,,,,,,,,,,,,,,,,,,,,,,,,,,,,,,,,,,,,,,,,,,,,,,,,,,,,,,,low_start,50,-20,30,-30,"[5, 2, 1, 0.5, 0.25, 0.1]",lin,1,1,7,1,13,25,up,0.25,0.0,0.0,30.0,77.74752383399755,77.75150541693438,77.75150541693438,78.2447389169829,78.2447389169829,78.31679808394983,78.31679808394983,78.31679808394983,78.25001166702714,80.08452641696204,0,,,,,,,,781732,001,2025-08-14_12h14.22.907,tilt_staircase,2024.2.4,None,2025-08-14 12h14.28.946277 -0700,
,,,,,,,,,,,,,,,,,,,,,,,,,80.09432824992109,,,,,,,,,,,,,,,,,,,,,,,,,,,,,,,,,,,,,,,,,,,,,,,,,,,,,,,,,,,,,,,,,,,,high_start,50,20,30,-30,"[5, 2, 1, 0.5, 0.25, 0.1]",lin,1,1,7,0,14,26,down,0.25,0.75,0.75,-29.25,80.0847328340169,80.09432824992109,80.09432824992109,80.58254179195501,80.58254179195501,80.6609572499292,80.6609572499292,80.6609572499292,80.58254179195501,81.18042141699698,1,,,,,,,,781732,001,2025-08-14_12h14.22.907,tilt_staircase,2024.2.4,None,2025-08-14 12h14.28.946277 -0700,
,,,,,,,,,,,,,,,,,,,,,,,,,81.18425412499346,,,,,,,,,,,,,,,,,,,,,,,,,,,,,,,,,,,,,,,,,,,,,,,,,,,,,,,,,,,,,,,,,,,,low_start,50,-20,30,-30,"[5, 2, 1, 0.5, 0.25, 0.1]",lin,1,1,7,1,14,27,up,0.25,0.25,0.25,30.25,81.18059579201508,81.18425412499346,81.18425412499346,81.67776787502225,81.67776787502225,81.74880241695791,81.74880241695791,81.74880241695791,81.6825086249737,82.43515579192899,1,,,,,,,,781732,001,2025-08-14_12h14.22.907,tilt_staircase,2024.2.4,None,2025-08-14 12h14.28.946277 -0700,
,,,,,,,,,,,,,,,,,,,,,,,,,82.44430145900697,,,,,,,,,,,,,,,,,,,,,,,,,,,,,,,,,,,,,,,,,,,,,,,,,,,,,,,,,,,,,,,,,,,,low_start,50,-20,30,-30,"[5, 2, 1, 0.5, 0.25, 0.1]",lin,1,1,7,1,15,28,down,0.1,0.15,0.15,30.15,82.43533616699278,82.44430145900697,82.44430145900697,82.9328786249971,82.9328786249971,83.01100045896601,83.01100045896601,83.01100045896601,82.9328786249971,83.65137241699267,1,,,,,,,,781732,001,2025-08-14_12h14.22.907,tilt_staircase,2024.2.4,None,2025-08-14 12h14.28.946277 -0700,
,,,,,,,,,,,,,,,,,,,,,,,,,83.66107645898592,,,,,,,,,,,,,,,,,,,,,,,,,,,,,,,,,,,,,,,,,,,,,,,,,,,,,,,,,,,,,,,,,,,,high_start,50,20,30,-30,"[5, 2, 1, 0.5, 0.25, 0.1]",lin,1,1,7,0,15,29,down,0.25,0.5,0.5,-29.5,83.65156483394094,83.66107645898592,83.66107645898592,84.1496796249412,84.1496796249412,84.22767495899461,84.22767495899461,84.22767495899461,84.1496796249412,84.83038199995644,1,,,,,,,,781732,001,2025-08-14_12h14.22.907,tilt_staircase,2024.2.4,None,2025-08-14 12h14.28.946277 -0700,
,,,,,,,,,,,,,,,,,,,,,,,,,84.83427233400289,,,,,,,,,,,,,,,,,,,,,,,,,,,,,,,,,,,,,,,,,,,,,,,,,,,,,,,,,,,,,,,,,,,,high_start,50,20,30,-30,"[5, 2, 1, 0.5, 0.25, 0.1]",lin,1,1,7,0,16,30,down,0.25,0.25,0.25,-29.75,84.83056941698305,84.83427233400289,84.83427233400289,85.32780129194725,85.32780129194725,85.398589874967,85.398589874967,85.398589874967,85.33273920894135,86.1812809589319,1,,,,,,,,781732,001,2025-08-14_12h14.22.907,tilt_staircase,2024.2.4,None,2025-08-14 12h14.28.946277 -0700,
,,,,,,,,,,,,,,,,,,,,,,,,,86.18585120898206,,,,,,,,,,,,,,,,,,,,,,,,,,,,,,,,,,,,,,,,,,,,,,,,,,,,,,,,,,,,,,,,,,,,low_start,50,-20,30,-30,"[5, 2, 1, 0.5, 0.25, 0.1]",lin,1,1,7,1,16,31,down,0.1,0.04999999999999999,0.04999999999999999,30.05,86.18147104198579,86.18585120898206,86.18585120898206,86.6776189589873,86.6776189589873,86.74866304197349,86.74866304197349,86.74866304197349,86.682144084014,87.31809099996462,1,,,,,,,,781732,001,2025-08-14_12h14.22.907,tilt_staircase,2024.2.4,None,2025-08-14 12h14.28.946277 -0700,
,,,,,,,,,,,,,,,,,,,,,,,,,87.32774545892607,,,,,,,,,,,,,,,,,,,,,,,,,,,,,,,,,,,,,,,,,,,,,,,,,,,,,,,,,,,,,,,,,,,,high_start,50,20,30,-30,"[5, 2, 1, 0.5, 0.25, 0.1]",lin,1,1,7,0,17,32,down,0.25,0.0,0.0,-30.0,87.31829458393622,87.32774545892607,87.32774545892607,87.81620916700922,87.81620916700922,87.89430612500291,87.89430612500291,87.89430612500291,87.81620916700922,88.61391779198311,0,,,,,,,,781732,001,2025-08-14_12h14.22.907,tilt_staircase,2024.2.4,None,2025-08-14 12h14.28.946277 -0700,
,,,,,,,,,,,,,,,,,,,,,,,,,88.61790554202162,,,,,,,,,,,,,,,,,,,,,,,,,,,,,,,,,,,,,,,,,,,,,,,,,,,,,,,,,,,,,,,,,,,,low_start,50,-20,30,-30,"[5, 2, 1, 0.5, 0.25, 0.1]",lin,1,1,7,1,17,33,down,0.1,-0.05000000000000002,-0.05000000000000002,29.95,88.61411808396224,88.61790554202162,88.61790554202162,89.11109291692264,89.11109291692264,89.18208104197402,89.18208104197402,89.18208104197402,89.1160503339488,89.8470649169758,0,,,,,,,,781732,001,2025-08-14_12h14.22.907,tilt_staircase,2024.2.4,None,2025-08-14 12h14.28.946277 -0700,
,,,,,,,,,,,,,,,,,,,,,,,,,89.85110862494912,,,,,,,,,,,,,,,,,,,,,,,,,,,,,,,,,,,,,,,,,,,,,,,,,,,,,,,,,,,,,,,,,,,,high_start,50,20,30,-30,"[5, 2, 1, 0.5, 0.25, 0.1]",lin,1,1,7,0,18,34,up,0.1,0.1,0.1,-29.9,89.8472671250347,89.85110862494912,89.85110862494912,90.34430104203057,90.34430104203057,90.41527787502855,90.41527787502855,90.41527787502855,90.3486697919434,91.4513549170224,1,,,,,,,,781732,001,2025-08-14_12h14.22.907,tilt_staircase,2024.2.4,None,2025-08-14 12h14.28.946277 -0700,
,,,,,,,,,,,,,,,,,,,,,,,,,91.46093820896931,,,,,,,,,,,,,,,,,,,,,,,,,,,,,,,,,,,,,,,,,,,,,,,,,,,,,,,,,,,,,,,,,,,,low_start,50,-20,30,-30,"[5, 2, 1, 0.5, 0.25, 0.1]",lin,1,1,7,1,18,35,up,0.1,0.04999999999999999,0.04999999999999999,30.05,91.45152816700283,91.46093820896931,91.46093820896931,91.95020362501964,91.95020362501964,92.02769474999513,92.02769474999513,92.02769474999513,91.95020362501964,92.56801629194524,1,,,,,,,,781732,001,2025-08-14_12h14.22.907,tilt_staircase,2024.2.4,None,2025-08-14 12h14.28.946277 -0700,
,,,,,,,,,,,,,,,,,,,,,,,,,92.57772558392026,,,,,,,,,,,,,,,,,,,,,,,,,,,,,,,,,,,,,,,,,,,,,,,,,,,,,,,,,,,,,,,,,,,,high_start,50,20,30,-30,"[5, 2, 1, 0.5, 0.25, 0.1]",lin,1,1,7,0,19,36,down,0.1,0.0,0.0,-30.0,92.56821437494364,92.57772558392026,92.57772558392026,93.06575574993622,93.06575574993622,93.1443203339586,93.1443203339586,93.1443203339586,93.06575574993622,93.95166754198726,1,,,,,,,,781732,001,2025-08-14_12h14.22.907,tilt_staircase,2024.2.4,None,2025-08-14 12h14.28.946277 -0700,
,,,,,,,,,,,,,,,,,,,,,,,,,93.96104841702618,,,,,,,,,,,,,,,,,,,,,,,,,,,,,,,,,,,,,,,,,,,,,,,,,,,,,,,,,,,,,,,,,,,,low_start,50,-20,30,-30,"[5, 2, 1, 0.5, 0.25, 0.1]",lin,1,1,7,1,19,37,down,0.1,-0.05000000000000002,-0.05000000000000002,29.95,93.95185874996241,93.96104841702618,93.96104841702618,94.44902354199439,94.44902354199439,94.52763891697396,94.52763891697396,94.52763891697396,94.44902354199439,96.24692029203288,1,,,,,,,,781732,001,2025-08-14_12h14.22.907,tilt_staircase,2024.2.4,None,2025-08-14 12h14.28.946277 -0700,
,,,,,,,,,,,,,,,,,,,,,,,,,96.25082908396143,,,,,,,,,,,,,,,,,,,,,,,,,,,,,,,,,,,,,,,,,,,,,,,,,,,,,,,,,,,,,,,,,,,,low_start,50,-20,30,-30,"[5, 2, 1, 0.5, 0.25, 0.1]",lin,1,1,7,1,20,38,down,0.1,-0.15000000000000002,-0.15000000000000002,29.85,96.24711020896211,96.25082908396143,96.25082908396143,96.74421725003049,96.74421725003049,96.81605837494135,96.81605837494135,96.81605837494135,96.7487919999985,97.48510183393955,0,,,,,,,,781732,001,2025-08-14_12h14.22.907,tilt_staircase,2024.2.4,None,2025-08-14 12h14.28.946277 -0700,
,,,,,,,,,,,,,,,,,,,,,,,,,97.49433083401527,,,,,,,,,,,,,,,,,,,,,,,,,,,,,,,,,,,,,,,,,,,,,,,,,,,,,,,,,,,,,,,,,,,,high_start,50,20,30,-30,"[5, 2, 1, 0.5, 0.25, 0.1]",lin,1,1,7,0,20,39,down,0.1,-0.1,-0.1,-30.1,97.48528112494387,97.49433083401527,97.49433083401527,97.98254479200114,97.98254479200114,98.06085216696374,98.06085216696374,98.06085216696374,97.98254479200114,98.84687441692222,0,,,,,,,,781732,001,2025-08-14_12h14.22.907,tilt_staircase,2024.2.4,None,2025-08-14 12h14.28.946277 -0700,
,,,,,,,,,,,,,,,,,,,,,,,,,98.85071599995717,,,,,,,,,,,,,,,,,,,,,,,,,,,,,,,,,,,,,,,,,,,,,,,,,,,,,,,,,,,,,,,,,,,,high_start,50,20,30,-30,"[5, 2, 1, 0.5, 0.25, 0.1]",lin,1,1,7,0,21,40,up,0.1,0.0,0.0,-30.0,98.84706820896827,98.85071599995717,98.85071599995717,99.34434254199732,99.34434254199732,99.41524245892651,99.41524245892651,99.41524245892651,99.34886195894796,101.06423324998468,0,,,,,,,,781732,001,2025-08-14_12h14.22.907,tilt_staircase,2024.2.4,None,2025-08-14 12h14.28.946277 -0700,
,,,,,,,,,,,,,,,,,,,,,,,,,101.06827920896467,,,,,,,,,,,,,,,,,,,,,,,,,,,,,,,,,,,,,,,,,,,,,,,,,,,,,,,,,,,,,,,,,,,,low_start,50,-20,30,-30,"[5, 2, 1, 0.5, 0.25, 0.1]",lin,1,1,7,1,21,41,up,0.1,-0.05000000000000002,-0.05000000000000002,29.95,101.06443166697863,101.06827920896467,101.06827920896467,101.56091716699302,101.56091716699302,101.63173154194374,101.63173154194374,101.63173154194374,101.5657832500292,102.23513625003397,0,,,,,,,,781732,001,2025-08-14_12h14.22.907,tilt_staircase,2024.2.4,None,2025-08-14 12h14.28.946277 -0700,
,,,,,,,,,,,,,,,,,,,,,,,,,102.24418741697446,,,,,,,,,,,,,,,,,,,,,,,,,,,,,,,,,,,,,,,,,,,,,,,,,,,,,,,,,,,,,,,,,,,,low_start,50,-20,30,-30,"[5, 2, 1, 0.5, 0.25, 0.1]",lin,1,1,7,1,22,42,up,0.1,0.04999999999999999,0.04999999999999999,30.05,102.23531687492505,102.24418741697446,102.24418741697446,102.73229708394501,102.73229708394501,102.8109314169269,102.8109314169269,102.8109314169269,102.73229708394501,103.58040533401072,0,,,,,,,,781732,001,2025-08-14_12h14.22.907,tilt_staircase,2024.2.4,None,2025-08-14 12h14.28.946277 -0700,
,,,,,,,,,,,,,,,,,,,,,,,,,103.58422941702884,,,,,,,,,,,,,,,,,,,,,,,,,,,,,,,,,,,,,,,,,,,,,,,,,,,,,,,,,,,,,,,,,,,,high_start,50,20,30,-30,"[5, 2, 1, 0.5, 0.25, 0.1]",lin,1,1,7,0,22,43,up,0.1,0.1,0.1,-29.9,103.58059179200791,103.58422941702884,103.58422941702884,104.0776360000018,104.0776360000018,104.14850558398757,104.14850558398757,104.14850558398757,104.08232670894358,105.90184345899615,1,,,,,,,,781732,001,2025-08-14_12h14.22.907,tilt_staircase,2024.2.4,None,2025-08-14 12h14.28.946277 -0700,
,,,,,,,,,,,,,,,,,,,,,,,,,105.91102237498853,,,,,,,,,,,,,,,,,,,,,,,,,,,,,,,,,,,,,,,,,,,,,,,,,,,,,,,,,,,,,,,,,,,,low_start,50,-20,30,-30,"[5, 2, 1, 0.5, 0.25, 0.1]",lin,1,1,7,1,23,44,up,0.1,0.15,0.15,30.15,105.90206374996342,105.91102237498853,105.91102237498853,106.39928120898549,106.39928120898549,106.47751429199707,106.47751429199707,106.47751429199707,106.39928120898549,107.01381104195025,1,,,,,,,,781732,001,2025-08-14_12h14.22.907,tilt_staircase,2024.2.4,None,2025-08-14 12h14.28.946277 -0700,
,,,,,,,,,,,,,,,,,,,,,,,,,107.01790020894259,,,,,,,,,,,,,,,,,,,,,,,,,,,,,,,,,,,,,,,,,,,,,,,,,,,,,,,,,,,,,,,,,,,,high_start,50,20,30,-30,"[5, 2, 1, 0.5, 0.25, 0.1]",lin,1,1,7,0,23,45,down,0.1,0.0,0.0,-30.0,107.01398074999452,107.01790020894259,107.01790020894259,107.51095304195769,107.51095304195769,107.5824583339272,107.5824583339272,107.5824583339272,107.51545379194431,108.9804114169674,0,,,,,,,,781732,001,2025-08-14_12h14.22.907,tilt_staircase,2024.2.4,None,2025-08-14 12h14.28.946277 -0700,
,,,,,,,,,,,,,,,,,,,,,,,,,108.98434170894325,,,,,,,,,,,,,,,,,,,,,,,,,,,,,,,,,,,,,,,,,,,,,,,,,,,,,,,,,,,,,,,,,,,,low_start,50,-20,30,-30,"[5, 2, 1, 0.5, 0.25, 0.1]",lin,1,1,7,1,24,46,down,0.1,0.04999999999999999,0.04999999999999999,30.05,108.9806094589876,108.98434170894325,108.98434170894325,109.4776713339379,109.4776713339379,109.54869329195935,109.54869329195935,109.54869329195935,109.48245879192837,110.13078633393161,0,,,,,,,,781732,001,2025-08-14_12h14.22.907,tilt_staircase,2024.2.4,None,2025-08-14 12h14.28.946277 -0700,
,,,,,,,,,,,,,,,,,,,,,,,,,110.13482308399398,,,,,,,,,,,,,,,,,,,,,,,,,,,,,,,,,,,,,,,,,,,,,,,,,,,,,,,,,,,,,,,,,,,,high_start,50,20,30,-30,"[5, 2, 1, 0.5, 0.25, 0.1]",lin,1,1,7,0,24,47,up,0.1,0.1,0.1,-29.9,110.13094479194842,110.13482308399398,110.13482308399398,110.62757987494115,110.62757987494115,110.69875316694379,110.69875316694379,110.69875316694379,110.63231358397752,111.33048433403019,0,,,,,,,,781732,001,2025-08-14_12h14.22.907,tilt_staircase,2024.2.4,None,2025-08-14 12h14.28.946277 -0700,
,,,,,,,,,,,,,,,,,,,,,,,,,111.33440841699485,,,,,,,,,,,,,,,,,,,,,,,,,,,,,,,,,,,,,,,,,,,,,,,,,,,,,,,,,,,,,,,,,,,,low_start,50,-20,30,-30,"[5, 2, 1, 0.5, 0.25, 0.1]",lin,1,1,7,1,25,48,up,0.1,0.15,0.15,30.15,111.33068108395673,111.33440841699485,111.33440841699485,111.8275856670225,111.8275856670225,111.89949129195884,111.89949129195884,111.89949129195884,111.83221758401487,112.56350275001023,0,,,,,,,,781732,001,2025-08-14_12h14.22.907,tilt_staircase,2024.2.4,None,2025-08-14 12h14.28.946277 -0700,
,,,,,,,,,,,,,,,,,,,,,,,,,112.56756095902529,,,,,,,,,,,,,,,,,,,,,,,,,,,,,,,,,,,,,,,,,,,,,,,,,,,,,,,,,,,,,,,,,,,,high_start,50,20,30,-30,"[5, 2, 1, 0.5, 0.25, 0.1]",lin,1,1,7,0,25,49,up,0.1,0.2,0.2,-29.8,112.56382562499493,112.56756095902529,112.56756095902529,113.06094587501138,113.06094587501138,113.1322656669654,113.1322656669654,113.1322656669654,113.0657430839492,114.18072145897895,1,,,,,,,,781732,001,2025-08-14_12h14.22.907,tilt_staircase,2024.2.4,None,2025-08-14 12h14.28.946277 -0700,
,,,,,,,,,,,,,,,,,,,,,,,,,,,,,,,,,,,,,,,,,,,,,,,,,,,,,,,,,,,,,,,,,,,,,,,,,,,,,,,,,,,,,,,,,,,,,,,,,,,,,,,,,,,,,,,,,,,,,,,,,,114.18078945903108,114.18539662496187,114.18539662496187,115.18066366692074,space,0.9901000839890912,None,781732,001,2025-08-14_12h14.22.907,tilt_staircase,2024.2.4,None,2025-08-14 12h14.28.946277 -0700,
