center,surround,correct,thisN,thisTrialN,thisRepN,key_resp_3.keys,key_resp_3.corr,key_resp_3.rt,key_resp_3.duration,opacity,key_resp_4.keys,key_resp_4.corr,key_resp_4.rt,key_resp_4.duration,practice_no_time.thisRepN,practice_no_time.thisTrialN,practice_no_time.thisN,practice_no_time.thisIndex,practice_timed.thisRepN,practice_timed.thisTrialN,practice_timed.thisN,practice_timed.thisIndex,thisRow.t,notes,instr.started,text_5.started,key_resp_2.started,instr.stopped,key_resp_2.keys,key_resp_2.rt,key_resp_2.duration,instr2.started,text_6.started,key_resp_6.started,instr2.stopped,key_resp_6.keys,key_resp_6.rt,key_resp_6.duration,test.started,surround_practice_3.started,center_practice_3.started,key_resp_7.started,test.stopped,key_resp_7.keys,key_resp_7.rt,key_resp_7.duration,practice_trial.started,key_resp_3.started,surround_practice.started,center_practice.started,practice_trial.stopped,practice_no_time.key_resp_3.keys,practice_no_time.key_resp_3.corr,practice_no_time.key_resp_3.rt,practice_no_time.key_resp_3.duration,practice_feedback.started,text_7.started,practice_feedback.stopped,text_7.stopped,instr3.started,text_8.started,key_resp_5.started,instr3.stopped,key_resp_5.keys,key_resp_5.rt,key_resp_5.duration,practice_trial_timed.started,key_resp_4.started,surround_practice_2.started,center_practice_2.started,surround_practice_2.stopped,center_practice_2.stopped,text_12.started,practice_trial_timed.stopped,practice_timed.key_resp_4.keys,practice_timed.key_resp_4.corr,practice_timed.key_resp_4.rt,practice_timed.key_resp_4.duration,start_instr.started,text_13.started,key_resp_8.started,start_instr.stopped,key_resp_8.keys,key_resp_8.rt,key_resp_8.duration,trials.label,trials.nReps,trials.startVal,trials.maxVal,trials.minVal,trials.stepSizes,trials.stepType,trials.nUp,trials.nDown,trials.nReversals,trials.thisIndex,trials.thisRepN,trials.thisN,trials.direction,trials.stepSize,trials.intensity,center_angle,trial.started,resp.started,surround_grating.started,center_grating.started,surround_grating.stopped,center_grating.stopped,text_3.started,trial.stopped,trials.response,surround_angle,end.started,text_4.started,key_resp.started,end.stopped,key_resp.keys,key_resp.rt,key_resp.duration,participant,session,date,expName,psychopyVersion,frameRate,expStart,
,,,,,,,,,,,,,,,,,,,,,,,,,0.01021295809186995,0.017649291083216667,0.017649291083216667,1.4692509160377085,space,1.4058917079819366,None,,,,,,,,,,,,,,,,,,,,,,,,,,,,,,,,,,,,,,,,,,,,,,,,,,,,,,,,,,,,,,,,,,,,,,,,,,,,,,,,,,,,,,,,,789846,001,2025-08-15_12h03.37.872,tilt_staircase,2024.2.4,None,2025-08-15 12h03.51.100407 -0700,
,,,,,,,,,,,,,,,,,,,,,,,,,,,,,,,,1.4693377080839127,1.4929355829954147,1.4929355829954147,1.844526750035584,space,0.3386079999618232,None,,,,,,,,,,,,,,,,,,,,,,,,,,,,,,,,,,,,,,,,,,,,,,,,,,,,,,,,,,,,,,,,,,,,,,,,,,,,,,,,,,789846,001,2025-08-15_12h03.37.872,tilt_staircase,2024.2.4,None,2025-08-15 12h03.51.100407 -0700,
,,,,,,,,,,,,,,,,,,,,,,,,,,,,,,,,,,,,,,,1.8453689580783248,1.8718462079996243,1.8718462079996243,1.8718462079996243,5.007883958052844,space,3.132284792023711,None,,,,,,,,,,,,,,,,,,,,,,,,,,,,,,,,,,,,,,,,,,,,,,,,,,,,,,,,,,,,,,,,,,,,,,,,,,789846,001,2025-08-15_12h03.37.872,tilt_staircase,2024.2.4,None,2025-08-15 12h03.51.100407 -0700,
30,0,right,0,0,0,right,1,1.4042117920471355,None,,,,,,0,0,0,0,,,,,5.04367749998346,,,,,,,,,,,,,,,,,,,,,,,,5.0367015830706805,5.04367749998346,5.503893833025359,5.503893833025359,6.458235915983096,right,1,1.4042117920471355,None,6.4636102500371635,6.605947875068523,7.959789208020084,,,,,,,,,,,,,,,,,,,,,,,,,,,,,,,,,,,,,,,,,,,,,,,,,,,,,,,,,,,,,,789846,001,2025-08-15_12h03.37.872,tilt_staircase,2024.2.4,None,2025-08-15 12h03.51.100407 -0700,
-30,0,left,1,1,0,left,1,0.8598783341003582,None,,,,,,0,1,1,1,,,,,7.972105958033353,,,,,,,,,,,,,,,,,,,,,,,,7.96082145802211,7.972105958033353,8.455393000040203,8.455393000040203,8.84131712501403,left,1,0.8598783341003582,None,8.841429750085808,8.850249750074,10.341278500040062,10.347701958031394,,,,,,,,,,,,,,,,,,,,,,,,,,,,,,,,,,,,,,,,,,,,,,,,,,,,,,,,,,,,,789846,001,2025-08-15_12h03.37.872,tilt_staircase,2024.2.4,None,2025-08-15 12h03.51.100407 -0700,
30,60,right,2,2,0,right,1,0.9442205840023234,None,,,,,,0,2,2,2,,,,,10.347701958031394,,,,,,,,,,,,,,,,,,,,,,,,10.342521124985069,10.347701958031394,10.838902833056636,10.838902833056636,11.298772916081361,right,1,0.9442205840023234,None,11.298887707991526,11.305350166046992,12.791355333058164,12.797175833024085,,,,,,,,,,,,,,,,,,,,,,,,,,,,,,,,,,,,,,,,,,,,,,,,,,,,,,,,,,,,,789846,001,2025-08-15_12h03.37.872,tilt_staircase,2024.2.4,None,2025-08-15 12h03.51.100407 -0700,
-30,-60,left,3,3,0,left,1,0.9237623329972848,None,,,,,,0,3,3,3,,,,,12.797175833024085,,,,,,,,,,,,,,,,,,,,,,,,12.79255195800215,12.797175833024085,13.298309416044503,13.298309416044503,13.725240500061773,left,1,0.9237623329972848,None,13.72545887506567,13.732984208036214,15.224031791090965,15.231085791019723,,,,,,,,,,,,,,,,,,,,,,,,,,,,,,,,,,,,,,,,,,,,,,,,,,,,,,,,,,,,,789846,001,2025-08-15_12h03.37.872,tilt_staircase,2024.2.4,None,2025-08-15 12h03.51.100407 -0700,
,,,,,,,,,,,,,,,,,,,,,,,,,,,,,,,,,,,,,,,,,,,,,,,,,,,,,,,,,,,,15.22418675001245,15.231085791019723,15.231085791019723,20.22361470805481,space,4.985178834060207,None,,,,,,,,,,,,,,,,,,,,,,,,,,,,,,,,,,,,,,,,,,,,,,,,,,,,,,789846,001,2025-08-15_12h03.37.872,tilt_staircase,2024.2.4,None,2025-08-15 12h03.51.100407 -0700,
-30,-60,left,0,0,0,,,,,100,left,1,1.0880818339064717,None,,,,,0,0,0,0,20.24058545799926,,,,,,,,,,,,,,,,,,,,,,,,,,,,,,,,,21.33144970808644,21.33948700001929,22.824597666040063,22.83055258297827,,,,,,,,20.23456462507602,20.24058545799926,20.719454166013747,20.719454166013747,20.79520470800344,20.79520470800344,20.79520470800344,21.331299624987878,left,1,1.0880818339064717,None,,,,,,,,,,,,,,,,,,,,,,,,,,,,,,,,,,,,,,,,,,789846,001,2025-08-15_12h03.37.872,tilt_staircase,2024.2.4,None,2025-08-15 12h03.51.100407 -0700,
-30,0,left,1,1,0,,,,,100,left,1,0.8897306250873953,None,,,,,0,1,1,1,22.83055258297827,,,,,,,,,,,,,,,,,,,,,,,,,,,,,,,,,23.725678750080988,23.73329045798164,25.224182291072793,25.22937387507409,,,,,,,,22.825183416018263,22.83055258297827,23.33259662508499,23.33259662508499,23.406678625033237,23.406678625033237,23.406678625033237,23.72550012508873,left,1,0.8897306250873953,None,,,,,,,,,,,,,,,,,,,,,,,,,,,,,,,,,,,,,,,,,,789846,001,2025-08-15_12h03.37.872,tilt_staircase,2024.2.4,None,2025-08-15 12h03.51.100407 -0700,
30,60,right,2,2,0,,,,,100,right,1,0.8804634590633214,None,,,,,0,2,2,2,25.22937387507409,,,,,,,,,,,,,,,,,,,,,,,,,,,,,,,,,26.11405520804692,26.121972541091964,27.607029290986247,27.61154733307194,,,,,,,,25.224704625084996,25.22937387507409,25.7221150000114,25.7221150000114,25.79342583299149,25.79342583299149,25.79342583299149,26.113952000043355,right,1,0.8804634590633214,None,,,,,,,,,,,,,,,,,,,,,,,,,,,,,,,,,,,,,,,,,,789846,001,2025-08-15_12h03.37.872,tilt_staircase,2024.2.4,None,2025-08-15 12h03.51.100407 -0700,
30,0,right,3,3,0,,,,,100,right,1,0.8844792080344632,None,,,,,0,3,3,3,27.61154733307194,,,,,,,,,,,,,,,,,,,,,,,,,,,,,,,,,28.50903829105664,28.51655662502162,30.00761945801787,30.01338120806031,,,,,,,,27.607508665998466,27.61154733307194,28.114766583079472,28.114766583079472,28.195320083061233,28.195320083061233,28.195320083061233,28.5089129160624,right,1,0.8844792080344632,None,,,,,,,,,,,,,,,,,,,,,,,,,,,,,,,,,,,,,,,,,,789846,001,2025-08-15_12h03.37.872,tilt_staircase,2024.2.4,None,2025-08-15 12h03.51.100407 -0700,
-30,69,left,4,4,0,,,,,0,left,1,0.9673187079606578,None,,,,,0,4,4,4,30.01338120806031,,,,,,,,,,,,,,,,,,,,,,,,,,,,,,,,,30.99129862501286,30.99851329100784,32.49091466597747,32.496384916012175,,,,,,,,30.008230541017838,30.01338120806031,30.506639333092608,30.506639333092608,30.57668400008697,30.57668400008697,30.57668400008697,30.99118370807264,left,1,0.9673187079606578,None,,,,,,,,,,,,,,,,,,,,,,,,,,,,,,,,,,,,,,,,,,789846,001,2025-08-15_12h03.37.872,tilt_staircase,2024.2.4,None,2025-08-15 12h03.51.100407 -0700,
30,69,right,5,5,0,,,,,0,right,1,1.1939587920205668,None,,,,,0,5,5,5,32.496384916012175,,,,,,,,,,,,,,,,,,,,,,,,,,,,,,,,,33.69351358304266,33.705239250091836,35.189416375011206,35.194711750024,,,,,,,,32.491433416027576,32.496384916012175,32.989756041090004,32.989756041090004,33.062864458072,33.062864458072,33.062864458072,33.69345608307049,right,1,1.1939587920205668,None,,,,,,,,,,,,,,,,,,,,,,,,,,,,,,,,,,,,,,,,,,789846,001,2025-08-15_12h03.37.872,tilt_staircase,2024.2.4,None,2025-08-15 12h03.51.100407 -0700,
,,,,,,,,,,,,,,,,,,,,,,,,,,,,,,,,,,,,,,,,,,,,,,,,,,,,,,,,,,,,,,,,,,,,,,,,,,,,,,,35.189564208034426,35.194711750024,35.194711750024,37.36572245799471,space,2.1676262500695884,None,,,,,,,,,,,,,,,,,,,,,,,,,,,,,,,,,,,789846,001,2025-08-15_12h03.37.872,tilt_staircase,2024.2.4,None,2025-08-15 12h03.51.100407 -0700,
,,,,,,,,,,,,,,,,,,,,,,,37.50592741603032,,,,,,,,,,,,,,,,,,,,,,,,,,,,,,,,,,,,,,,,,,,,,,,,,,,,,,,,,,,,,,,posc_noss,30,15,15,-15,"[5, 2, 1, 0.5]",lin,1,1,8,5,1,0,start,5,15,15,37.50010491604917,37.50592741603032,37.87014374998398,37.87014374998398,37.947649665991776,37.947649665991776,37.947649665991776,38.341841874993406,1,,,,,,,,,789846,001,2025-08-15_12h03.37.872,tilt_staircase,2024.2.4,None,2025-08-15 12h03.51.100407 -0700,
,,,,,,,,,,,,,,,,,,,,,,,38.35064283304382,,,,,,,,,,,,,,,,,,,,,,,,,,,,,,,,,,,,,,,,,,,,,,,,,,,,,,,,,,,,,,,posc_negs,30,15,15,-15,"[5, 2, 1, 0.5]",lin,1,1,8,1,1,1,start,5,15,15,38.343155000009574,38.35064283304382,38.839610125054605,38.839610125054605,38.9105045000324,38.9105045000324,38.9105045000324,39.27473362500314,1,-15,,,,,,,,789846,001,2025-08-15_12h03.37.872,tilt_staircase,2024.2.4,None,2025-08-15 12h03.51.100407 -0700,
,,,,,,,,,,,,,,,,,,,,,,,39.282868916052394,,,,,,,,,,,,,,,,,,,,,,,,,,,,,,,,,,,,,,,,,,,,,,,,,,,,,,,,,,,,,,,posc_poss,30,15,15,-15,"[5, 2, 1, 0.5]",lin,1,1,8,3,1,2,start,5,15,15,39.27586599998176,39.282868916052394,39.77287312503904,39.77287312503904,39.845786333084106,39.845786333084106,39.845786333084106,40.19769308308605,1,15,,,,,,,,789846,001,2025-08-15_12h03.37.872,tilt_staircase,2024.2.4,None,2025-08-15 12h03.51.100407 -0700,
,,,,,,,,,,,,,,,,,,,,,,,40.20594291598536,,,,,,,,,,,,,,,,,,,,,,,,,,,,,,,,,,,,,,,,,,,,,,,,,,,,,,,,,,,,,,,negc_poss,30,-15,15,-15,"[5, 2, 1, 0.5]",lin,1,1,8,2,1,3,start,5,-15,-15,40.19877895805985,40.20594291598536,40.69758058304433,40.69758058304433,40.7734907080885,40.7734907080885,40.7734907080885,41.261606083018705,0,15,,,,,,,,789846,001,2025-08-15_12h03.37.872,tilt_staircase,2024.2.4,None,2025-08-15 12h03.51.100407 -0700,
,,,,,,,,,,,,,,,,,,,,,,,41.27304095798172,,,,,,,,,,,,,,,,,,,,,,,,,,,,,,,,,,,,,,,,,,,,,,,,,,,,,,,,,,,,,,,negc_noss,30,-15,15,-15,"[5, 2, 1, 0.5]",lin,1,1,8,4,1,4,start,5,-15,-15,41.26247608300764,41.27304095798172,41.762482000049204,41.762482000049204,41.83864175004419,41.83864175004419,41.83864175004419,42.20808633300476,0,,,,,,,,,789846,001,2025-08-15_12h03.37.872,tilt_staircase,2024.2.4,None,2025-08-15 12h03.51.100407 -0700,
,,,,,,,,,,,,,,,,,,,,,,,42.215999874984846,,,,,,,,,,,,,,,,,,,,,,,,,,,,,,,,,,,,,,,,,,,,,,,,,,,,,,,,,,,,,,,negc_negs,30,-15,15,-15,"[5, 2, 1, 0.5]",lin,1,1,8,0,1,5,start,5,-15,-15,42.20917487505358,42.215999874984846,42.70538420800585,42.70538420800585,42.779185541090555,42.779185541090555,42.779185541090555,43.13077291601803,0,-15,,,,,,,,789846,001,2025-08-15_12h03.37.872,tilt_staircase,2024.2.4,None,2025-08-15 12h03.51.100407 -0700,
,,,,,,,,,,,,,,,,,,,,,,,43.13924475002568,,,,,,,,,,,,,,,,,,,,,,,,,,,,,,,,,,,,,,,,,,,,,,,,,,,,,,,,,,,,,,,posc_noss,30,15,15,-15,"[5, 2, 1, 0.5]",lin,1,1,8,5,2,6,down,5,10,10,43.13184866600204,43.13924475002568,43.63074362499174,43.63074362499174,43.70663195801899,43.70663195801899,43.70663195801899,44.529883500072174,1,,,,,,,,,789846,001,2025-08-15_12h03.37.872,tilt_staircase,2024.2.4,None,2025-08-15 12h03.51.100407 -0700,
,,,,,,,,,,,,,,,,,,,,,,,44.53832637507003,,,,,,,,,,,,,,,,,,,,,,,,,,,,,,,,,,,,,,,,,,,,,,,,,,,,,,,,,,,,,,,negc_negs,30,-15,15,-15,"[5, 2, 1, 0.5]",lin,1,1,8,0,2,7,up,5,-10,-10,44.53090695803985,44.53832637507003,45.022817332996055,45.022817332996055,45.09540525008924,45.09540525008924,45.106611583032645,45.447327208006755,0,-15,,,,,,,,789846,001,2025-08-15_12h03.37.872,tilt_staircase,2024.2.4,None,2025-08-15 12h03.51.100407 -0700,
,,,,,,,,,,,,,,,,,,,,,,,45.4556805830216,,,,,,,,,,,,,,,,,,,,,,,,,,,,,,,,,,,,,,,,,,,,,,,,,,,,,,,,,,,,,,,posc_poss,30,15,15,-15,"[5, 2, 1, 0.5]",lin,1,1,8,3,2,8,down,5,10,10,45.44832025002688,45.4556805830216,45.948684333008714,45.948684333008714,46.023058250080794,46.023058250080794,46.023058250080794,46.42549470800441,1,15,,,,,,,,789846,001,2025-08-15_12h03.37.872,tilt_staircase,2024.2.4,None,2025-08-15 12h03.51.100407 -0700,
,,,,,,,,,,,,,,,,,,,,,,,46.43474745808635,,,,,,,,,,,,,,,,,,,,,,,,,,,,,,,,,,,,,,,,,,,,,,,,,,,,,,,,,,,,,,,negc_noss,30,-15,15,-15,"[5, 2, 1, 0.5]",lin,1,1,8,4,2,9,up,5,-10,-10,46.42751337506343,46.43474745808635,46.922770375036635,46.922770375036635,46.995736000011675,46.995736000011675,46.995736000011675,47.357333500054665,0,,,,,,,,,789846,001,2025-08-15_12h03.37.872,tilt_staircase,2024.2.4,None,2025-08-15 12h03.51.100407 -0700,
,,,,,,,,,,,,,,,,,,,,,,,47.365237625082955,,,,,,,,,,,,,,,,,,,,,,,,,,,,,,,,,,,,,,,,,,,,,,,,,,,,,,,,,,,,,,,negc_poss,30,-15,15,-15,"[5, 2, 1, 0.5]",lin,1,1,8,2,2,10,up,5,-10,-10,47.35831704107113,47.365237625082955,47.85673008300364,47.85673008300364,47.929192333016545,47.929192333016545,47.929192333016545,48.46754625008907,0,15,,,,,,,,789846,001,2025-08-15_12h03.37.872,tilt_staircase,2024.2.4,None,2025-08-15 12h03.51.100407 -0700,
,,,,,,,,,,,,,,,,,,,,,,,48.4728964160895,,,,,,,,,,,,,,,,,,,,,,,,,,,,,,,,,,,,,,,,,,,,,,,,,,,,,,,,,,,,,,,posc_negs,30,15,15,-15,"[5, 2, 1, 0.5]",lin,1,1,8,1,2,11,down,5,10,10,48.46849591599312,48.4728964160895,48.96398958307691,48.96398958307691,49.040056791040115,49.040056791040115,49.04621499998029,49.48105695808772,1,-15,,,,,,,,789846,001,2025-08-15_12h03.37.872,tilt_staircase,2024.2.4,None,2025-08-15 12h03.51.100407 -0700,
,,,,,,,,,,,,,,,,,,,,,,,49.48885783308651,,,,,,,,,,,,,,,,,,,,,,,,,,,,,,,,,,,,,,,,,,,,,,,,,,,,,,,,,,,,,,,negc_negs,30,-15,15,-15,"[5, 2, 1, 0.5]",lin,1,1,8,0,3,12,up,5,-5,-5,49.48201333300676,49.48885783308651,49.97919575008564,49.97919575008564,50.05639354104642,50.05639354104642,50.05639354104642,51.825233625015244,1,-15,,,,,,,,789846,001,2025-08-15_12h03.37.872,tilt_staircase,2024.2.4,None,2025-08-15 12h03.51.100407 -0700,
,,,,,,,,,,,,,,,,,,,,,,,51.83441508305259,,,,,,,,,,,,,,,,,,,,,,,,,,,,,,,,,,,,,,,,,,,,,,,,,,,,,,,,,,,,,,,posc_poss,30,15,15,-15,"[5, 2, 1, 0.5]",lin,1,1,8,3,3,13,down,5,5,5,51.82701662508771,51.83441508305259,52.321983291069046,52.321983291069046,52.39456654107198,52.39456654107198,52.39456654107198,52.9082737499848,1,15,,,,,,,,789846,001,2025-08-15_12h03.37.872,tilt_staircase,2024.2.4,None,2025-08-15 12h03.51.100407 -0700,
,,,,,,,,,,,,,,,,,,,,,,,52.91640637500677,,,,,,,,,,,,,,,,,,,,,,,,,,,,,,,,,,,,,,,,,,,,,,,,,,,,,,,,,,,,,,,posc_negs,30,15,15,-15,"[5, 2, 1, 0.5]",lin,1,1,8,1,3,14,down,5,5,5,52.90933125000447,52.91640637500677,53.40518070803955,53.40518070803955,53.479825625079684,53.479825625079684,53.479825625079684,53.99167233298067,1,-15,,,,,,,,789846,001,2025-08-15_12h03.37.872,tilt_staircase,2024.2.4,None,2025-08-15 12h03.51.100407 -0700,
,,,,,,,,,,,,,,,,,,,,,,,53.99835150002036,,,,,,,,,,,,,,,,,,,,,,,,,,,,,,,,,,,,,,,,,,,,,,,,,,,,,,,,,,,,,,,posc_noss,30,15,15,-15,"[5, 2, 1, 0.5]",lin,1,1,8,5,3,15,down,5,5,5,53.99237387499306,53.99835150002036,54.488907833001576,54.488907833001576,54.56315250007901,54.56315250007901,54.56315250007901,54.96773212507833,1,,,,,,,,,789846,001,2025-08-15_12h03.37.872,tilt_staircase,2024.2.4,None,2025-08-15 12h03.51.100407 -0700,
,,,,,,,,,,,,,,,,,,,,,,,54.97311862499919,,,,,,,,,,,,,,,,,,,,,,,,,,,,,,,,,,,,,,,,,,,,,,,,,,,,,,,,,,,,,,,negc_poss,30,-15,15,-15,"[5, 2, 1, 0.5]",lin,1,1,8,2,3,16,up,5,-5,-5,54.96872933302075,54.97311862499919,55.472915708087385,55.472915708087385,55.542485999991186,55.542485999991186,55.542485999991186,56.02391033305321,0,15,,,,,,,,789846,001,2025-08-15_12h03.37.872,tilt_staircase,2024.2.4,None,2025-08-15 12h03.51.100407 -0700,
,,,,,,,,,,,,,,,,,,,,,,,56.03039333305787,,,,,,,,,,,,,,,,,,,,,,,,,,,,,,,,,,,,,,,,,,,,,,,,,,,,,,,,,,,,,,,negc_noss,30,-15,15,-15,"[5, 2, 1, 0.5]",lin,1,1,8,4,3,17,up,5,-5,-5,56.02479175000917,56.03039333305787,56.52277666598093,56.52277666598093,56.59323433309328,56.59323433309328,56.59323433309328,57.081360041047446,0,,,,,,,,,789846,001,2025-08-15_12h03.37.872,tilt_staircase,2024.2.4,None,2025-08-15 12h03.51.100407 -0700,
,,,,,,,,,,,,,,,,,,,,,,,57.0890630830545,,,,,,,,,,,,,,,,,,,,,,,,,,,,,,,,,,,,,,,,,,,,,,,,,,,,,,,,,,,,,,,posc_poss,30,15,15,-15,"[5, 2, 1, 0.5]",lin,1,1,8,3,4,18,down,5,0,0,57.081856000004336,57.0890630830545,57.58125799999107,57.58125799999107,57.65688470809255,57.65688470809255,57.65688470809255,58.42484083306044,0,15,,,,,,,,789846,001,2025-08-15_12h03.37.872,tilt_staircase,2024.2.4,None,2025-08-15 12h03.51.100407 -0700,
,,,,,,,,,,,,,,,,,,,,,,,58.4322339160135,,,,,,,,,,,,,,,,,,,,,,,,,,,,,,,,,,,,,,,,,,,,,,,,,,,,,,,,,,,,,,,negc_negs,30,-15,15,-15,"[5, 2, 1, 0.5]",lin,1,1,8,0,4,19,down,2,-7,-7,58.42629037506413,58.4322339160135,58.922172541031614,58.922172541031614,58.99288704106584,58.99288704106584,58.99288704106584,59.50975924998056,0,-15,,,,,,,,789846,001,2025-08-15_12h03.37.872,tilt_staircase,2024.2.4,None,2025-08-15 12h03.51.100407 -0700,
,,,,,,,,,,,,,,,,,,,,,,,59.517720540985465,,,,,,,,,,,,,,,,,,,,,,,,,,,,,,,,,,,,,,,,,,,,,,,,,,,,,,,,,,,,,,,negc_poss,30,-15,15,-15,"[5, 2, 1, 0.5]",lin,1,1,8,2,4,20,up,5,0,0,59.51091337506659,59.517720540985465,60.00560174998827,60.00560174998827,60.079469999996945,60.079469999996945,60.079469999996945,60.52552704105619,0,15,,,,,,,,789846,001,2025-08-15_12h03.37.872,tilt_staircase,2024.2.4,None,2025-08-15 12h03.51.100407 -0700,
,,,,,,,,,,,,,,,,,,,,,,,60.533917458029464,,,,,,,,,,,,,,,,,,,,,,,,,,,,,,,,,,,,,,,,,,,,,,,,,,,,,,,,,,,,,,,posc_negs,30,15,15,-15,"[5, 2, 1, 0.5]",lin,1,1,8,1,4,21,down,5,0,0,60.52672750002239,60.533917458029464,61.02300658298191,61.02300658298191,61.09558312501758,61.09558312501758,61.09558312501758,61.55897958308924,1,-15,,,,,,,,789846,001,2025-08-15_12h03.37.872,tilt_staircase,2024.2.4,None,2025-08-15 12h03.51.100407 -0700,
,,,,,,,,,,,,,,,,,,,,,,,61.567190333036706,,,,,,,,,,,,,,,,,,,,,,,,,,,,,,,,,,,,,,,,,,,,,,,,,,,,,,,,,,,,,,,negc_noss,30,-15,15,-15,"[5, 2, 1, 0.5]",lin,1,1,8,4,4,22,up,5,0,0,61.56011683307588,61.567190333036706,62.05622912500985,62.05622912500985,62.128793791052885,62.128793791052885,62.128793791052885,63.923179708071984,1,,,,,,,,,789846,001,2025-08-15_12h03.37.872,tilt_staircase,2024.2.4,None,2025-08-15 12h03.51.100407 -0700,
,,,,,,,,,,,,,,,,,,,,,,,63.92731870803982,,,,,,,,,,,,,,,,,,,,,,,,,,,,,,,,,,,,,,,,,,,,,,,,,,,,,,,,,,,,,,,posc_noss,30,15,15,-15,"[5, 2, 1, 0.5]",lin,1,1,8,5,4,23,down,5,0,0,63.92424858303275,63.92731870803982,64.42224316601641,64.42224316601641,64.49568312498741,64.49568312498741,64.49568312498741,66.60793104104232,0,,,,,,,,,789846,001,2025-08-15_12h03.37.872,tilt_staircase,2024.2.4,None,2025-08-15 12h03.51.100407 -0700,
,,,,,,,,,,,,,,,,,,,,,,,66.61649870802648,,,,,,,,,,,,,,,,,,,,,,,,,,,,,,,,,,,,,,,,,,,,,,,,,,,,,,,,,,,,,,,negc_noss,30,-15,15,-15,"[5, 2, 1, 0.5]",lin,1,1,8,4,5,24,down,2,-2,-2,66.60900075000245,66.61649870802648,67.1061802910408,67.1061802910408,67.17874975001905,67.17874975001905,67.17874975001905,67.6644027500879,0,,,,,,,,,789846,001,2025-08-15_12h03.37.872,tilt_staircase,2024.2.4,None,2025-08-15 12h03.51.100407 -0700,
,,,,,,,,,,,,,,,,,,,,,,,67.6730155000696,,,,,,,,,,,,,,,,,,,,,,,,,,,,,,,,,,,,,,,,,,,,,,,,,,,,,,,,,,,,,,,posc_negs,30,15,15,-15,"[5, 2, 1, 0.5]",lin,1,1,8,1,5,25,down,5,-5,-5,67.66547170805279,67.6730155000696,68.17520041600801,68.17520041600801,68.24548691604286,68.24548691604286,68.23950991604943,68.87875320808962,0,-15,,,,,,,,789846,001,2025-08-15_12h03.37.872,tilt_staircase,2024.2.4,None,2025-08-15 12h03.51.100407 -0700,
,,,,,,,,,,,,,,,,,,,,,,,68.88842720806133,,,,,,,,,,,,,,,,,,,,,,,,,,,,,,,,,,,,,,,,,,,,,,,,,,,,,,,,,,,,,,,negc_poss,30,-15,15,-15,"[5, 2, 1, 0.5]",lin,1,1,8,2,5,26,up,5,5,5,68.87980054109357,68.88842720806133,69.3718195410911,69.3718195410911,69.4448675410822,69.4448675410822,69.45673141605221,69.9582467500586,1,15,,,,,,,,789846,001,2025-08-15_12h03.37.872,tilt_staircase,2024.2.4,None,2025-08-15 12h03.51.100407 -0700,
,,,,,,,,,,,,,,,,,,,,,,,69.96664895804133,,,,,,,,,,,,,,,,,,,,,,,,,,,,,,,,,,,,,,,,,,,,,,,,,,,,,,,,,,,,,,,negc_negs,30,-15,15,-15,"[5, 2, 1, 0.5]",lin,1,1,8,0,5,27,up,1,-6,-6,69.95980887499172,69.96664895804133,70.45517983299214,70.45517983299214,70.52877900004387,70.52877900004387,70.52877900004387,71.23068483301904,0,-15,,,,,,,,789846,001,2025-08-15_12h03.37.872,tilt_staircase,2024.2.4,None,2025-08-15 12h03.51.100407 -0700,
,,,,,,,,,,,,,,,,,,,,,,,71.23935687507037,,,,,,,,,,,,,,,,,,,,,,,,,,,,,,,,,,,,,,,,,,,,,,,,,,,,,,,,,,,,,,,posc_noss,30,15,15,-15,"[5, 2, 1, 0.5]",lin,1,1,8,5,5,28,up,2,2,2,71.23173908307217,71.23935687507037,71.73136237508152,71.73136237508152,71.80600870808121,71.80600870808121,71.80600870808121,72.24755095806904,1,,,,,,,,,789846,001,2025-08-15_12h03.37.872,tilt_staircase,2024.2.4,None,2025-08-15 12h03.51.100407 -0700,
,,,,,,,,,,,,,,,,,,,,,,,72.25574295804836,,,,,,,,,,,,,,,,,,,,,,,,,,,,,,,,,,,,,,,,,,,,,,,,,,,,,,,,,,,,,,,posc_poss,30,15,15,-15,"[5, 2, 1, 0.5]",lin,1,1,8,3,5,29,up,2,2,2,72.24869350006338,72.25574295804836,72.7466614160221,72.7466614160221,72.82337679108605,72.82337679108605,72.82337679108605,73.54103795799892,0,15,,,,,,,,789846,001,2025-08-15_12h03.37.872,tilt_staircase,2024.2.4,None,2025-08-15 12h03.51.100407 -0700,
,,,,,,,,,,,,,,,,,,,,,,,73.54912595800124,,,,,,,,,,,,,,,,,,,,,,,,,,,,,,,,,,,,,,,,,,,,,,,,,,,,,,,,,,,,,,,negc_poss,30,-15,15,-15,"[5, 2, 1, 0.5]",lin,1,1,8,2,6,30,down,2,3,3,73.54204966605175,73.54912595800124,74.03839958307799,74.03839958307799,74.1124471250223,74.1124471250223,74.1124471250223,75.6306327910861,1,15,,,,,,,,789846,001,2025-08-15_12h03.37.872,tilt_staircase,2024.2.4,None,2025-08-15 12h03.51.100407 -0700,
,,,,,,,,,,,,,,,,,,,,,,,75.63910150004085,,,,,,,,,,,,,,,,,,,,,,,,,,,,,,,,,,,,,,,,,,,,,,,,,,,,,,,,,,,,,,,posc_poss,30,15,15,-15,"[5, 2, 1, 0.5]",lin,1,1,8,3,6,31,up,2,4,4,75.63163591607008,75.63910150004085,76.13252762507182,76.13252762507182,76.20658691599965,76.20658691599965,76.20658691599965,77.01283695804887,1,15,,,,,,,,789846,001,2025-08-15_12h03.37.872,tilt_staircase,2024.2.4,None,2025-08-15 12h03.51.100407 -0700,
,,,,,,,,,,,,,,,,,,,,,,,77.0217837500386,,,,,,,,,,,,,,,,,,,,,,,,,,,,,,,,,,,,,,,,,,,,,,,,,,,,,,,,,,,,,,,negc_negs,30,-15,15,-15,"[5, 2, 1, 0.5]",lin,1,1,8,0,6,32,up,1,-5,-5,77.01382304099388,77.0217837500386,77.5056644580327,77.5056644580327,77.57825595804024,77.57825595804024,77.58941020804923,81.6957517080009,1,-15,,,,,,,,789846,001,2025-08-15_12h03.37.872,tilt_staircase,2024.2.4,None,2025-08-15 12h03.51.100407 -0700,
,,,,,,,,,,,,,,,,,,,,,,,81.70618550002109,,,,,,,,,,,,,,,,,,,,,,,,,,,,,,,,,,,,,,,,,,,,,,,,,,,,,,,,,,,,,,,negc_noss,30,-15,15,-15,"[5, 2, 1, 0.5]",lin,1,1,8,4,6,33,up,1,-1,-1,81.69781479099765,81.70618550002109,82.18841737508774,82.18841737508774,82.26014595804736,82.26014595804736,82.27364329108968,82.75178599997889,0,,,,,,,,,789846,001,2025-08-15_12h03.37.872,tilt_staircase,2024.2.4,None,2025-08-15 12h03.51.100407 -0700,
,,,,,,,,,,,,,,,,,,,,,,,82.77258925000206,,,,,,,,,,,,,,,,,,,,,,,,,,,,,,,,,,,,,,,,,,,,,,,,,,,,,,,,,,,,,,,posc_noss,30,15,15,-15,"[5, 2, 1, 0.5]",lin,1,1,8,5,6,34,down,1,1,1,82.75258920807391,82.77258925000206,83.24767575005535,83.24767575005535,83.32742283307016,83.32742283307016,83.32742283307016,83.84808520798106,1,,,,,,,,,789846,001,2025-08-15_12h03.37.872,tilt_staircase,2024.2.4,None,2025-08-15 12h03.51.100407 -0700,
,,,,,,,,,,,,,,,,,,,,,,,83.85645550000481,,,,,,,,,,,,,,,,,,,,,,,,,,,,,,,,,,,,,,,,,,,,,,,,,,,,,,,,,,,,,,,posc_negs,30,15,15,-15,"[5, 2, 1, 0.5]",lin,1,1,8,1,6,35,up,2,-3,-3,83.84917791606858,83.85645550000481,84.34840620798059,84.34840620798059,84.42316458304413,84.42316458304413,84.42316458304413,85.5952559580328,1,-15,,,,,,,,789846,001,2025-08-15_12h03.37.872,tilt_staircase,2024.2.4,None,2025-08-15 12h03.51.100407 -0700,
,,,,,,,,,,,,,,,,,,,,,,,85.60547537507955,,,,,,,,,,,,,,,,,,,,,,,,,,,,,,,,,,,,,,,,,,,,,,,,,,,,,,,,,,,,,,,posc_poss,30,15,15,-15,"[5, 2, 1, 0.5]",lin,1,1,8,3,7,36,down,1,3,3,85.5961938330438,85.60547537507955,86.08841325005051,86.08841325005051,86.16234545805492,86.16234545805492,86.17328400001861,86.70844579103868,1,15,,,,,,,,789846,001,2025-08-15_12h03.37.872,tilt_staircase,2024.2.4,None,2025-08-15 12h03.51.100407 -0700,
,,,,,,,,,,,,,,,,,,,,,,,86.71662091603503,,,,,,,,,,,,,,,,,,,,,,,,,,,,,,,,,,,,,,,,,,,,,,,,,,,,,,,,,,,,,,,posc_noss,30,15,15,-15,"[5, 2, 1, 0.5]",lin,1,1,8,5,7,37,down,1,0,0,86.70973841601517,86.71662091603503,87.20542750007007,87.20542750007007,87.27922737505287,87.27922737505287,87.27922737505287,87.84102741605602,0,,,,,,,,,789846,001,2025-08-15_12h03.37.872,tilt_staircase,2024.2.4,None,2025-08-15 12h03.51.100407 -0700,
,,,,,,,,,,,,,,,,,,,,,,,87.84575283306185,,,,,,,,,,,,,,,,,,,,,,,,,,,,,,,,,,,,,,,,,,,,,,,,,,,,,,,,,,,,,,,negc_negs,30,-15,15,-15,"[5, 2, 1, 0.5]",lin,1,1,8,0,7,38,down,0.5,-5.5,-5.5,87.84170125005767,87.84575283306185,88.3384459160734,88.3384459160734,88.41286470799241,88.41286470799241,88.41286470799241,89.21011850005016,0,-15,,,,,,,,789846,001,2025-08-15_12h03.37.872,tilt_staircase,2024.2.4,None,2025-08-15 12h03.51.100407 -0700,
,,,,,,,,,,,,,,,,,,,,,,,89.22164645802695,,,,,,,,,,,,,,,,,,,,,,,,,,,,,,,,,,,,,,,,,,,,,,,,,,,,,,,,,,,,,,,negc_poss,30,-15,15,-15,"[5, 2, 1, 0.5]",lin,1,1,8,2,7,39,down,2,1,1,89.21049941598903,89.22164645802695,89.70603408303577,89.70603408303577,89.77914162504021,89.77914162504021,89.77914162504021,91.39225354103837,1,15,,,,,,,,789846,001,2025-08-15_12h03.37.872,tilt_staircase,2024.2.4,None,2025-08-15 12h03.51.100407 -0700,
,,,,,,,,,,,,,,,,,,,,,,,91.40045412501786,,,,,,,,,,,,,,,,,,,,,,,,,,,,,,,,,,,,,,,,,,,,,,,,,,,,,,,,,,,,,,,negc_noss,30,-15,15,-15,"[5, 2, 1, 0.5]",lin,1,1,8,4,7,40,up,1,0,0,91.39336933300365,91.40045412501786,91.88835441600531,91.88835441600531,91.96018241601996,91.96018241601996,91.96018241601996,92.63966566603631,0,,,,,,,,,789846,001,2025-08-15_12h03.37.872,tilt_staircase,2024.2.4,None,2025-08-15 12h03.51.100407 -0700,
,,,,,,,,,,,,,,,,,,,,,,,92.64451812498737,,,,,,,,,,,,,,,,,,,,,,,,,,,,,,,,,,,,,,,,,,,,,,,,,,,,,,,,,,,,,,,posc_negs,30,15,15,-15,"[5, 2, 1, 0.5]",lin,1,1,8,1,7,41,down,1,-4,-4,92.6401580410311,92.64451812498737,93.13024741609115,93.13024741609115,93.20640241599176,93.20640241599176,93.21097250003368,94.36431291606277,1,-15,,,,,,,,789846,001,2025-08-15_12h03.37.872,tilt_staircase,2024.2.4,None,2025-08-15 12h03.51.100407 -0700,
,,,,,,,,,,,,,,,,,,,,,,,94.37262012506835,,,,,,,,,,,,,,,,,,,,,,,,,,,,,,,,,,,,,,,,,,,,,,,,,,,,,,,,,,,,,,,negc_negs,30,-15,15,-15,"[5, 2, 1, 0.5]",lin,1,1,8,0,8,42,up,0.5,-5.0,-5.0,94.36536991607863,94.37262012506835,94.8653073750902,94.8653073750902,94.93989625002723,94.93989625002723,94.93989625002723,95.74162770807743,0,-15,,,,,,,,789846,001,2025-08-15_12h03.37.872,tilt_staircase,2024.2.4,None,2025-08-15 12h03.51.100407 -0700,
,,,,,,,,,,,,,,,,,,,,,,,95.75011329108384,,,,,,,,,,,,,,,,,,,,,,,,,,,,,,,,,,,,,,,,,,,,,,,,,,,,,,,,,,,,,,,negc_poss,30,-15,15,-15,"[5, 2, 1, 0.5]",lin,1,1,8,2,8,43,down,2,-1,-1,95.74319420801476,95.75011329108384,96.23967970802914,96.23967970802914,96.31228933308739,96.31228933308739,96.31228933308739,96.74711466603912,0,15,,,,,,,,789846,001,2025-08-15_12h03.37.872,tilt_staircase,2024.2.4,None,2025-08-15 12h03.51.100407 -0700,
,,,,,,,,,,,,,,,,,,,,,,,96.7550637080567,,,,,,,,,,,,,,,,,,,,,,,,,,,,,,,,,,,,,,,,,,,,,,,,,,,,,,,,,,,,,,,negc_noss,30,-15,15,-15,"[5, 2, 1, 0.5]",lin,1,1,8,4,8,44,up,1,1,1,96.74807625007816,96.7550637080567,97.24863899999764,97.24863899999764,97.32306058309041,97.32306058309041,97.32306058309041,97.7626063330099,1,,,,,,,,,789846,001,2025-08-15_12h03.37.872,tilt_staircase,2024.2.4,None,2025-08-15 12h03.51.100407 -0700,
,,,,,,,,,,,,,,,,,,,,,,,97.77161133300979,,,,,,,,,,,,,,,,,,,,,,,,,,,,,,,,,,,,,,,,,,,,,,,,,,,,,,,,,,,,,,,posc_poss,30,15,15,-15,"[5, 2, 1, 0.5]",lin,1,1,8,3,8,45,down,1,2,2,97.76355079107452,97.77161133300979,98.26434204098769,98.26434204098769,98.33943000005092,98.33943000005092,98.33943000005092,99.09206291602459,1,15,,,,,,,,789846,001,2025-08-15_12h03.37.872,tilt_staircase,2024.2.4,None,2025-08-15 12h03.51.100407 -0700,
,,,,,,,,,,,,,,,,,,,,,,,99.100886582979,,,,,,,,,,,,,,,,,,,,,,,,,,,,,,,,,,,,,,,,,,,,,,,,,,,,,,,,,,,,,,,posc_negs,30,15,15,-15,"[5, 2, 1, 0.5]",lin,1,1,8,1,8,46,down,1,-5,-5,99.09376245806925,99.100886582979,99.58867866604123,99.58867866604123,99.662577833049,99.662577833049,99.662577833049,100.17481587501243,0,-15,,,,,,,,789846,001,2025-08-15_12h03.37.872,tilt_staircase,2024.2.4,None,2025-08-15 12h03.51.100407 -0700,
,,,,,,,,,,,,,,,,,,,,,,,100.18308679107577,,,,,,,,,,,,,,,,,,,,,,,,,,,,,,,,,,,,,,,,,,,,,,,,,,,,,,,,,,,,,,,posc_noss,30,15,15,-15,"[5, 2, 1, 0.5]",lin,1,1,8,5,8,47,up,0.5,0.5,0.5,100.17606695799623,100.18308679107577,100.67217720800545,100.67217720800545,100.74590679106768,100.74590679106768,100.74590679106768,101.22511800006032,1,,,,,,,,,789846,001,2025-08-15_12h03.37.872,tilt_staircase,2024.2.4,None,2025-08-15 12h03.51.100407 -0700,
,,,,,,,,,,,,,,,,,,,,,,,101.23376750003081,,,,,,,,,,,,,,,,,,,,,,,,,,,,,,,,,,,,,,,,,,,,,,,,,,,,,,,,,,,,,,,posc_poss,30,15,15,-15,"[5, 2, 1, 0.5]",lin,1,1,8,3,9,48,down,1,1,1,101.22677649999969,101.23376750003081,101.7217220410239,101.7217220410239,101.7953799579991,101.7953799579991,101.7953799579991,103.69190887501463,1,15,,,,,,,,789846,001,2025-08-15_12h03.37.872,tilt_staircase,2024.2.4,None,2025-08-15 12h03.51.100407 -0700,
,,,,,,,,,,,,,,,,,,,,,,,103.701121833059,,,,,,,,,,,,,,,,,,,,,,,,,,,,,,,,,,,,,,,,,,,,,,,,,,,,,,,,,,,,,,,posc_negs,30,15,15,-15,"[5, 2, 1, 0.5]",lin,1,1,8,1,9,49,up,0.5,-4.5,-4.5,103.69382504106034,103.701121833059,104.18849625007715,104.18849625007715,104.26253166608512,104.26253166608512,104.26253166608512,104.79754070797935,0,-15,,,,,,,,789846,001,2025-08-15_12h03.37.872,tilt_staircase,2024.2.4,None,2025-08-15 12h03.51.100407 -0700,
,,,,,,,,,,,,,,,,,,,,,,,104.80549350008368,,,,,,,,,,,,,,,,,,,,,,,,,,,,,,,,,,,,,,,,,,,,,,,,,,,,,,,,,,,,,,,negc_poss,30,-15,15,-15,"[5, 2, 1, 0.5]",lin,1,1,8,2,9,50,up,1,0,0,104.79852449998725,104.80549350008368,105.29808533308096,105.29808533308096,105.37312937504612,105.37312937504612,105.37312937504612,105.84202620806172,0,15,,,,,,,,789846,001,2025-08-15_12h03.37.872,tilt_staircase,2024.2.4,None,2025-08-15 12h03.51.100407 -0700,
,,,,,,,,,,,,,,,,,,,,,,,105.85047045804095,,,,,,,,,,,,,,,,,,,,,,,,,,,,,,,,,,,,,,,,,,,,,,,,,,,,,,,,,,,,,,,posc_noss,30,15,15,-15,"[5, 2, 1, 0.5]",lin,1,1,8,5,9,51,down,0.5,0.0,0.0,105.84361054108012,105.85047045804095,106.3383852080442,106.3383852080442,106.4123297079932,106.4123297079932,106.4123297079932,106.8751417080639,1,,,,,,,,,789846,001,2025-08-15_12h03.37.872,tilt_staircase,2024.2.4,None,2025-08-15 12h03.51.100407 -0700,
,,,,,,,,,,,,,,,,,,,,,,,106.88219941605348,,,,,,,,,,,,,,,,,,,,,,,,,,,,,,,,,,,,,,,,,,,,,,,,,,,,,,,,,,,,,,,negc_negs,30,-15,15,-15,"[5, 2, 1, 0.5]",lin,1,1,8,0,9,52,up,0.5,-4.5,-4.5,106.876207791036,106.88219941605348,107.37176766607445,107.37176766607445,107.44588887505233,107.44588887505233,107.44588887505233,109.40841100004036,1,-15,,,,,,,,789846,001,2025-08-15_12h03.37.872,tilt_staircase,2024.2.4,None,2025-08-15 12h03.51.100407 -0700,
,,,,,,,,,,,,,,,,,,,,,,,109.41670116607565,,,,,,,,,,,,,,,,,,,,,,,,,,,,,,,,,,,,,,,,,,,,,,,,,,,,,,,,,,,,,,,negc_noss,30,-15,15,-15,"[5, 2, 1, 0.5]",lin,1,1,8,4,9,53,down,0.5,0.5,0.5,109.40948745806236,109.41670116607565,109.90554725006223,109.90554725006223,109.97903587506153,109.97903587506153,109.97903587506153,111.85855541599449,0,,,,,,,,,789846,001,2025-08-15_12h03.37.872,tilt_staircase,2024.2.4,None,2025-08-15 12h03.51.100407 -0700,
,,,,,,,,,,,,,,,,,,,,,,,111.86724616598804,,,,,,,,,,,,,,,,,,,,,,,,,,,,,,,,,,,,,,,,,,,,,,,,,,,,,,,,,,,,,,,posc_negs,30,15,15,-15,"[5, 2, 1, 0.5]",lin,1,1,8,1,10,54,up,0.5,-4.0,-4.0,111.86022191599477,111.86724616598804,112.35596741607878,112.35596741607878,112.42948904098012,112.42948904098012,112.42948904098012,112.94172858307138,0,-15,,,,,,,,789846,001,2025-08-15_12h03.37.872,tilt_staircase,2024.2.4,None,2025-08-15 12h03.51.100407 -0700,
,,,,,,,,,,,,,,,,,,,,,,,112.94971183303278,,,,,,,,,,,,,,,,,,,,,,,,,,,,,,,,,,,,,,,,,,,,,,,,,,,,,,,,,,,,,,,posc_poss,30,15,15,-15,"[5, 2, 1, 0.5]",lin,1,1,8,3,10,55,down,1,0,0,112.94293550006114,112.94971183303278,113.43846408301033,113.43846408301033,113.51277787506115,113.51277787506115,113.51277787506115,114.00842208298855,0,15,,,,,,,,789846,001,2025-08-15_12h03.37.872,tilt_staircase,2024.2.4,None,2025-08-15 12h03.51.100407 -0700,
,,,,,,,,,,,,,,,,,,,,,,,114.01650041597895,,,,,,,,,,,,,,,,,,,,,,,,,,,,,,,,,,,,,,,,,,,,,,,,,,,,,,,,,,,,,,,negc_poss,30,-15,15,-15,"[5, 2, 1, 0.5]",lin,1,1,8,2,10,56,up,1,1,1,114.0097603329923,114.01650041597895,114.50646566599607,114.50646566599607,114.57942133303732,114.57942133303732,114.57942133303732,115.25817529100459,0,15,,,,,,,,789846,001,2025-08-15_12h03.37.872,tilt_staircase,2024.2.4,None,2025-08-15 12h03.51.100407 -0700,
,,,,,,,,,,,,,,,,,,,,,,,115.26625774998683,,,,,,,,,,,,,,,,,,,,,,,,,,,,,,,,,,,,,,,,,,,,,,,,,,,,,,,,,,,,,,,negc_noss,30,-15,15,-15,"[5, 2, 1, 0.5]",lin,1,1,8,4,10,57,up,0.5,1.0,1.0,115.25921591604128,115.26625774998683,115.75518945802469,115.75518945802469,115.82984687504359,115.82984687504359,115.82984687504359,116.32524741603993,1,,,,,,,,,789846,001,2025-08-15_12h03.37.872,tilt_staircase,2024.2.4,None,2025-08-15 12h03.51.100407 -0700,
,,,,,,,,,,,,,,,,,,,,,,,116.33433366601821,,,,,,,,,,,,,,,,,,,,,,,,,,,,,,,,,,,,,,,,,,,,,,,,,,,,,,,,,,,,,,,negc_negs,30,-15,15,-15,"[5, 2, 1, 0.5]",lin,1,1,8,0,10,58,down,0.5,-5.0,-5.0,116.32709575002082,116.33433366601821,116.8226922909962,116.8226922909962,116.89531500008889,116.89531500008889,116.89531500008889,117.38982958300039,0,-15,,,,,,,,789846,001,2025-08-15_12h03.37.872,tilt_staircase,2024.2.4,None,2025-08-15 12h03.51.100407 -0700,
,,,,,,,,,,,,,,,,,,,,,,,117.39520725002512,,,,,,,,,,,,,,,,,,,,,,,,,,,,,,,,,,,,,,,,,,,,,,,,,,,,,,,,,,,,,,,posc_noss,30,15,15,-15,"[5, 2, 1, 0.5]",lin,1,1,8,5,10,59,down,0.5,-0.5,-0.5,117.39080283301882,117.39520725002512,117.88143675005995,117.88143675005995,117.95643075008411,117.95643075008411,117.9622523750877,119.09160929103382,0,,,,,,,,,789846,001,2025-08-15_12h03.37.872,tilt_staircase,2024.2.4,None,2025-08-15 12h03.51.100407 -0700,
,,,,,,,,,,,,,,,,,,,,,,,119.10029845801182,,,,,,,,,,,,,,,,,,,,,,,,,,,,,,,,,,,,,,,,,,,,,,,,,,,,,,,,,,,,,,,negc_negs,30,-15,15,-15,"[5, 2, 1, 0.5]",lin,1,1,8,0,11,60,up,0.5,-4.5,-4.5,119.09297750005499,119.10029845801182,119.58988566603512,119.58988566603512,119.66263041598722,119.66263041598722,119.66263041598722,120.20863604103215,0,-15,,,,,,,,789846,001,2025-08-15_12h03.37.872,tilt_staircase,2024.2.4,None,2025-08-15 12h03.51.100407 -0700,
,,,,,,,,,,,,,,,,,,,,,,,120.21760866604745,,,,,,,,,,,,,,,,,,,,,,,,,,,,,,,,,,,,,,,,,,,,,,,,,,,,,,,,,,,,,,,negc_poss,30,-15,15,-15,"[5, 2, 1, 0.5]",lin,1,1,8,2,11,61,up,1,2,2,120.21029437507968,120.21760866604745,120.70494941598736,120.70494941598736,120.7796979160048,120.7796979160048,120.7796979160048,121.25816183304414,1,15,,,,,,,,789846,001,2025-08-15_12h03.37.872,tilt_staircase,2024.2.4,None,2025-08-15 12h03.51.100407 -0700,
,,,,,,,,,,,,,,,,,,,,,,,121.265982208075,,,,,,,,,,,,,,,,,,,,,,,,,,,,,,,,,,,,,,,,,,,,,,,,,,,,,,,,,,,,,,,negc_noss,30,-15,15,-15,"[5, 2, 1, 0.5]",lin,1,1,8,4,11,62,down,0.5,0.5,0.5,121.25917662505526,121.265982208075,121.75650537502952,121.75650537502952,121.82896970806178,121.82896970806178,121.82896970806178,125.10726016608533,0,,,,,,,,,789846,001,2025-08-15_12h03.37.872,tilt_staircase,2024.2.4,None,2025-08-15 12h03.51.100407 -0700,
,,,,,,,,,,,,,,,,,,,,,,,125.11303904105444,,,,,,,,,,,,,,,,,,,,,,,,,,,,,,,,,,,,,,,,,,,,,,,,,,,,,,,,,,,,,,,posc_poss,30,15,15,-15,"[5, 2, 1, 0.5]",lin,1,1,8,3,11,63,up,0.5,0.5,0.5,125.10832062503323,125.11303904105444,125.60515516600572,125.60515516600572,125.67998995806556,125.67998995806556,125.67998995806556,126.29180950007867,0,15,,,,,,,,789846,001,2025-08-15_12h03.37.872,tilt_staircase,2024.2.4,None,2025-08-15 12h03.51.100407 -0700,
,,,,,,,,,,,,,,,,,,,,,,,126.30041183298454,,,,,,,,,,,,,,,,,,,,,,,,,,,,,,,,,,,,,,,,,,,,,,,,,,,,,,,,,,,,,,,posc_negs,30,15,15,-15,"[5, 2, 1, 0.5]",lin,1,1,8,1,11,64,up,0.5,-3.5,-3.5,126.29313062503934,126.30041183298454,126.7882584159961,126.7882584159961,126.86245316604618,126.86245316604618,126.86245316604618,127.47545737505425,0,-15,,,,,,,,789846,001,2025-08-15_12h03.37.872,tilt_staircase,2024.2.4,None,2025-08-15 12h03.51.100407 -0700,
,,,,,,,,,,,,,,,,,,,,,,,127.48321758303791,,,,,,,,,,,,,,,,,,,,,,,,,,,,,,,,,,,,,,,,,,,,,,,,,,,,,,,,,,,,,,,posc_noss,30,15,15,-15,"[5, 2, 1, 0.5]",lin,1,1,8,5,11,65,up,0.5,0.0,0.0,127.47641450003721,127.48321758303791,127.97170233307406,127.97170233307406,128.045315166004,128.045315166004,128.045315166004,128.98424920800608,1,,,,,,,,,789846,001,2025-08-15_12h03.37.872,tilt_staircase,2024.2.4,None,2025-08-15 12h03.51.100407 -0700,
,,,,,,,,,,,,,,,,,,,,,,,129.00593537499662,,,,,,,,,,,,,,,,,,,,,,,,,,,,,,,,,,,,,,,,,,,,,,,,,,,,,,,,,,,,,,,negc_poss,30,-15,15,-15,"[5, 2, 1, 0.5]",lin,1,1,8,2,12,66,down,0.5,1.5,1.5,128.98532408301253,129.00593537499662,129.4812920410186,129.4812920410186,129.5563777500065,129.5563777500065,129.56219275004696,130.85817391599994,0,15,,,,,,,,789846,001,2025-08-15_12h03.37.872,tilt_staircase,2024.2.4,None,2025-08-15 12h03.51.100407 -0700,
,,,,,,,,,,,,,,,,,,,,,,,130.86651475005783,,,,,,,,,,,,,,,,,,,,,,,,,,,,,,,,,,,,,,,,,,,,,,,,,,,,,,,,,,,,,,,posc_noss,30,15,15,-15,"[5, 2, 1, 0.5]",lin,1,1,8,5,12,67,down,0.5,-0.5,-0.5,130.8595607910538,130.86651475005783,131.35609095799737,131.35609095799737,131.4265974999871,131.4265974999871,131.4265974999871,131.90797150006983,0,,,,,,,,,789846,001,2025-08-15_12h03.37.872,tilt_staircase,2024.2.4,None,2025-08-15 12h03.51.100407 -0700,
,,,,,,,,,,,,,,,,,,,,,,,131.91625558305532,,,,,,,,,,,,,,,,,,,,,,,,,,,,,,,,,,,,,,,,,,,,,,,,,,,,,,,,,,,,,,,posc_negs,30,15,15,-15,"[5, 2, 1, 0.5]",lin,1,1,8,1,12,68,up,0.5,-3.0,-3.0,131.90944033302367,131.91625558305532,132.40645545802545,132.40645545802545,132.47928504098672,132.47928504098672,132.47928504098672,133.31514712504577,0,-15,,,,,,,,789846,001,2025-08-15_12h03.37.872,tilt_staircase,2024.2.4,None,2025-08-15 12h03.51.100407 -0700,
,,,,,,,,,,,,,,,,,,,,,,,133.32524004101288,,,,,,,,,,,,,,,,,,,,,,,,,,,,,,,,,,,,,,,,,,,,,,,,,,,,,,,,,,,,,,,negc_negs,30,-15,15,-15,"[5, 2, 1, 0.5]",lin,1,1,8,0,12,69,up,0.5,-4.0,-4.0,133.31660183297936,133.32524004101288,133.81216137507,133.81216137507,133.8884054160444,133.8884054160444,133.8933778749779,134.4246059160214,0,-15,,,,,,,,789846,001,2025-08-15_12h03.37.872,tilt_staircase,2024.2.4,None,2025-08-15 12h03.51.100407 -0700,
,,,,,,,,,,,,,,,,,,,,,,,134.43278929102235,,,,,,,,,,,,,,,,,,,,,,,,,,,,,,,,,,,,,,,,,,,,,,,,,,,,,,,,,,,,,,,negc_noss,30,-15,15,-15,"[5, 2, 1, 0.5]",lin,1,1,8,4,12,70,up,0.5,1.0,1.0,134.4256540000206,134.43278929102235,134.92156054102816,134.92156054102816,134.99599666602444,134.99599666602444,134.99599666602444,135.63044616603293,1,,,,,,,,,789846,001,2025-08-15_12h03.37.872,tilt_staircase,2024.2.4,None,2025-08-15 12h03.51.100407 -0700,
,,,,,,,,,,,,,,,,,,,,,,,135.6381313330494,,,,,,,,,,,,,,,,,,,,,,,,,,,,,,,,,,,,,,,,,,,,,,,,,,,,,,,,,,,,,,,posc_poss,30,15,15,-15,"[5, 2, 1, 0.5]",lin,1,1,8,3,12,71,up,0.5,1.0,1.0,135.63140600000042,135.6381313330494,136.1309928750852,136.1309928750852,136.20639904099517,136.20639904099517,136.20639904099517,136.90036470803898,0,15,,,,,,,,789846,001,2025-08-15_12h03.37.872,tilt_staircase,2024.2.4,None,2025-08-15 12h03.51.100407 -0700,
,,,,,,,,,,,,,,,,,,,,,,,136.9058782500215,,,,,,,,,,,,,,,,,,,,,,,,,,,,,,,,,,,,,,,,,,,,,,,,,,,,,,,,,,,,,,,posc_noss,30,15,15,-15,"[5, 2, 1, 0.5]",lin,1,1,8,5,13,72,up,0.5,0.0,0.0,136.90138108306564,136.9058782500215,137.39653558307327,137.39653558307327,137.47304804099258,137.47304804099258,137.47980416601058,137.99131650000345,1,,,,,,,,,789846,001,2025-08-15_12h03.37.872,tilt_staircase,2024.2.4,None,2025-08-15 12h03.51.100407 -0700,
,,,,,,,,,,,,,,,,,,,,,,,137.99946279102005,,,,,,,,,,,,,,,,,,,,,,,,,,,,,,,,,,,,,,,,,,,,,,,,,,,,,,,,,,,,,,,posc_negs,30,15,15,-15,"[5, 2, 1, 0.5]",lin,1,1,8,1,13,73,up,0.5,-2.5,-2.5,137.99238891608547,137.99946279102005,138.48841079103295,138.48841079103295,138.56273937504739,138.56273937504739,138.56273937504739,141.05202050006483,1,-15,,,,,,,,789846,001,2025-08-15_12h03.37.872,tilt_staircase,2024.2.4,None,2025-08-15 12h03.51.100407 -0700,
,,,,,,,,,,,,,,,,,,,,,,,141.05878804100212,,,,,,,,,,,,,,,,,,,,,,,,,,,,,,,,,,,,,,,,,,,,,,,,,,,,,,,,,,,,,,,negc_noss,30,-15,15,-15,"[5, 2, 1, 0.5]",lin,1,1,8,4,13,74,down,0.5,0.5,0.5,141.05326541606337,141.05878804100212,141.5485899160849,141.5485899160849,141.6231656250311,141.6231656250311,141.6294883750379,142.4086331659928,0,,,,,,,,,789846,001,2025-08-15_12h03.37.872,tilt_staircase,2024.2.4,None,2025-08-15 12h03.51.100407 -0700,
,,,,,,,,,,,,,,,,,,,,,,,142.41747550002765,,,,,,,,,,,,,,,,,,,,,,,,,,,,,,,,,,,,,,,,,,,,,,,,,,,,,,,,,,,,,,,negc_poss,30,-15,15,-15,"[5, 2, 1, 0.5]",lin,1,1,8,2,13,75,up,0.5,2.0,2.0,142.41032866598107,142.41747550002765,142.9052584579913,142.9052584579913,142.97952962503769,142.97952962503769,142.97952962503769,148.08096558297984,1,15,,,,,,,,789846,001,2025-08-15_12h03.37.872,tilt_staircase,2024.2.4,None,2025-08-15 12h03.51.100407 -0700,
,,,,,,,,,,,,,,,,,,,,,,,148.0888483329909,,,,,,,,,,,,,,,,,,,,,,,,,,,,,,,,,,,,,,,,,,,,,,,,,,,,,,,,,,,,,,,posc_poss,30,15,15,-15,"[5, 2, 1, 0.5]",lin,1,1,8,3,13,76,up,0.5,1.5,1.5,148.0817350000143,148.0888483329909,148.58054083306342,148.58054083306342,148.65607883303892,148.65607883303892,148.65607883303892,149.19710616604425,0,15,,,,,,,,789846,001,2025-08-15_12h03.37.872,tilt_staircase,2024.2.4,None,2025-08-15 12h03.51.100407 -0700,
,,,,,,,,,,,,,,,,,,,,,,,149.2052687080577,,,,,,,,,,,,,,,,,,,,,,,,,,,,,,,,,,,,,,,,,,,,,,,,,,,,,,,,,,,,,,,negc_negs,30,-15,15,-15,"[5, 2, 1, 0.5]",lin,1,1,8,0,13,77,up,0.5,-3.5,-3.5,149.19811604102142,149.2052687080577,149.69643679098226,149.69643679098226,149.7730258749798,149.7730258749798,149.7730258749798,150.41594883298967,0,-15,,,,,,,,789846,001,2025-08-15_12h03.37.872,tilt_staircase,2024.2.4,None,2025-08-15 12h03.51.100407 -0700,
,,,,,,,,,,,,,,,,,,,,,,,150.42157095798757,,,,,,,,,,,,,,,,,,,,,,,,,,,,,,,,,,,,,,,,,,,,,,,,,,,,,,,,,,,,,,,negc_noss,30,-15,15,-15,"[5, 2, 1, 0.5]",lin,1,1,8,4,14,78,up,0.5,1.0,1.0,150.41696162498556,150.42157095798757,150.91460266604554,150.91460266604554,150.98929133301135,150.98929133301135,150.98929133301135,151.7307195829926,1,,,,,,,,,789846,001,2025-08-15_12h03.37.872,tilt_staircase,2024.2.4,None,2025-08-15 12h03.51.100407 -0700,
,,,,,,,,,,,,,,,,,,,,,,,151.73865062498953,,,,,,,,,,,,,,,,,,,,,,,,,,,,,,,,,,,,,,,,,,,,,,,,,,,,,,,,,,,,,,,negc_negs,30,-15,15,-15,"[5, 2, 1, 0.5]",lin,1,1,8,0,14,79,up,0.5,-3.0,-3.0,151.73169958300423,151.73865062498953,152.23058450000826,152.23058450000826,152.30651537503581,152.30651537503581,152.30651537503581,153.3557174160378,0,-15,,,,,,,,789846,001,2025-08-15_12h03.37.872,tilt_staircase,2024.2.4,None,2025-08-15 12h03.51.100407 -0700,
,,,,,,,,,,,,,,,,,,,,,,,153.36133908305783,,,,,,,,,,,,,,,,,,,,,,,,,,,,,,,,,,,,,,,,,,,,,,,,,,,,,,,,,,,,,,,posc_noss,30,15,15,-15,"[5, 2, 1, 0.5]",lin,1,1,8,5,14,80,down,0.5,-0.5,-0.5,153.3567256249953,153.36133908305783,153.8495765409898,153.8495765409898,153.9229187500896,153.9229187500896,153.92858000006527,154.91396375000477,1,,,,,,,,,789846,001,2025-08-15_12h03.37.872,tilt_staircase,2024.2.4,None,2025-08-15 12h03.51.100407 -0700,
,,,,,,,,,,,,,,,,,,,,,,,154.92220408306457,,,,,,,,,,,,,,,,,,,,,,,,,,,,,,,,,,,,,,,,,,,,,,,,,,,,,,,,,,,,,,,posc_poss,30,15,15,-15,"[5, 2, 1, 0.5]",lin,1,1,8,3,14,81,up,0.5,2.0,2.0,154.91499900002964,154.92220408306457,155.41453762503807,155.41453762503807,155.48934937501326,155.48934937501326,155.48934937501326,156.66696954099461,1,15,,,,,,,,789846,001,2025-08-15_12h03.37.872,tilt_staircase,2024.2.4,None,2025-08-15 12h03.51.100407 -0700,
,,,,,,,,,,,,,,,,,,,,,,,156.6722307910677,,,,,,,,,,,,,,,,,,,,,,,,,,,,,,,,,,,,,,,,,,,,,,,,,,,,,,,,,,,,,,,posc_negs,30,15,15,-15,"[5, 2, 1, 0.5]",lin,1,1,8,1,14,82,down,0.5,-3.0,-3.0,156.66793908306863,156.6722307910677,157.164993833052,157.164993833052,157.2397151660407,157.2397151660407,157.2456899160752,157.78359970799647,0,-15,,,,,,,,789846,001,2025-08-15_12h03.37.872,tilt_staircase,2024.2.4,None,2025-08-15 12h03.51.100407 -0700,
,,,,,,,,,,,,,,,,,,,,,,,157.7889493330149,,,,,,,,,,,,,,,,,,,,,,,,,,,,,,,,,,,,,,,,,,,,,,,,,,,,,,,,,,,,,,,negc_poss,30,-15,15,-15,"[5, 2, 1, 0.5]",lin,1,1,8,2,14,83,down,0.5,1.5,1.5,157.78454758308362,157.7889493330149,158.28116158302873,158.28116158302873,158.355964541086,158.355964541086,158.3608572500525,159.04765437508468,0,15,,,,,,,,789846,001,2025-08-15_12h03.37.872,tilt_staircase,2024.2.4,None,2025-08-15 12h03.51.100407 -0700,
,,,,,,,,,,,,,,,,,,,,,,,159.05604658299126,,,,,,,,,,,,,,,,,,,,,,,,,,,,,,,,,,,,,,,,,,,,,,,,,,,,,,,,,,,,,,,posc_negs,30,15,15,-15,"[5, 2, 1, 0.5]",lin,1,1,8,1,15,84,up,0.5,-2.5,-2.5,159.04875987500418,159.05604658299126,159.54814850003459,159.54814850003459,159.62257779098582,159.62257779098582,159.62257779098582,161.74045945808757,1,-15,,,,,,,,789846,001,2025-08-15_12h03.37.872,tilt_staircase,2024.2.4,None,2025-08-15 12h03.51.100407 -0700,
,,,,,,,,,,,,,,,,,,,,,,,161.74843345803674,,,,,,,,,,,,,,,,,,,,,,,,,,,,,,,,,,,,,,,,,,,,,,,,,,,,,,,,,,,,,,,negc_negs,30,-15,15,-15,"[5, 2, 1, 0.5]",lin,1,1,8,0,15,85,up,0.5,-2.5,-2.5,161.74142750003375,161.74843345803674,162.23295679106377,162.23295679106377,162.30622020806186,162.30622020806186,162.3143302500248,163.6808918750612,1,-15,,,,,,,,789846,001,2025-08-15_12h03.37.872,tilt_staircase,2024.2.4,None,2025-08-15 12h03.51.100407 -0700,
,,,,,,,,,,,,,,,,,,,,,,,163.68915533309337,,,,,,,,,,,,,,,,,,,,,,,,,,,,,,,,,,,,,,,,,,,,,,,,,,,,,,,,,,,,,,,posc_poss,30,15,15,-15,"[5, 2, 1, 0.5]",lin,1,1,8,3,15,86,down,0.5,1.5,1.5,163.68197445804253,163.68915533309337,164.18162908300292,164.18162908300292,164.25630929099862,164.25630929099862,164.25630929099862,164.79171904106624,0,15,,,,,,,,789846,001,2025-08-15_12h03.37.872,tilt_staircase,2024.2.4,None,2025-08-15 12h03.51.100407 -0700,
,,,,,,,,,,,,,,,,,,,,,,,164.80052645807154,,,,,,,,,,,,,,,,,,,,,,,,,,,,,,,,,,,,,,,,,,,,,,,,,,,,,,,,,,,,,,,posc_noss,30,15,15,-15,"[5, 2, 1, 0.5]",lin,1,1,8,5,15,87,down,0.5,-1.0,-1.0,164.79353525000624,164.80052645807154,165.28820237505715,165.28820237505715,165.36298254108988,165.36298254108988,165.36298254108988,165.85832025005948,0,,,,,,,,,789846,001,2025-08-15_12h03.37.872,tilt_staircase,2024.2.4,None,2025-08-15 12h03.51.100407 -0700,
,,,,,,,,,,,,,,,,,,,,,,,165.86610149999615,,,,,,,,,,,,,,,,,,,,,,,,,,,,,,,,,,,,,,,,,,,,,,,,,,,,,,,,,,,,,,,negc_noss,30,-15,15,-15,"[5, 2, 1, 0.5]",lin,1,1,8,4,15,88,down,0.5,0.5,0.5,165.85937362501863,165.86610149999615,166.35543754103128,166.35543754103128,166.4298885000171,166.4298885000171,166.4298885000171,167.21701145800762,1,,,,,,,,,789846,001,2025-08-15_12h03.37.872,tilt_staircase,2024.2.4,None,2025-08-15 12h03.51.100407 -0700,
,,,,,,,,,,,,,,,,,,,,,,,167.22239300003275,,,,,,,,,,,,,,,,,,,,,,,,,,,,,,,,,,,,,,,,,,,,,,,,,,,,,,,,,,,,,,,negc_poss,30,-15,15,-15,"[5, 2, 1, 0.5]",lin,1,1,8,2,15,89,up,0.5,2.0,2.0,167.2179667080054,167.22239300003275,167.71477012499236,167.71477012499236,167.78984770807438,167.78984770807438,167.79630512499716,170.40816958306823,1,15,,,,,,,,789846,001,2025-08-15_12h03.37.872,tilt_staircase,2024.2.4,None,2025-08-15 12h03.51.100407 -0700,
,,,,,,,,,,,,,,,,,,,,,,,170.41657900006976,,,,,,,,,,,,,,,,,,,,,,,,,,,,,,,,,,,,,,,,,,,,,,,,,,,,,,,,,,,,,,,negc_negs,30,-15,15,-15,"[5, 2, 1, 0.5]",lin,1,1,8,0,16,90,down,0.5,-3.0,-3.0,170.40943450003397,170.41657900006976,170.90580566599965,170.90580566599965,170.97844187507872,170.97844187507872,170.97844187507872,171.4975799160311,0,-15,,,,,,,,789846,001,2025-08-15_12h03.37.872,tilt_staircase,2024.2.4,None,2025-08-15 12h03.51.100407 -0700,
,,,,,,,,,,,,,,,,,,,,,,,171.50553487509023,,,,,,,,,,,,,,,,,,,,,,,,,,,,,,,,,,,,,,,,,,,,,,,,,,,,,,,,,,,,,,,posc_negs,30,15,15,-15,"[5, 2, 1, 0.5]",lin,1,1,8,1,16,91,down,0.5,-3.0,-3.0,171.49859595799353,171.50553487509023,171.99800204101484,171.99800204101484,172.0720470000524,172.0720470000524,172.0720470000524,172.67488308309112,0,-15,,,,,,,,789846,001,2025-08-15_12h03.37.872,tilt_staircase,2024.2.4,None,2025-08-15 12h03.51.100407 -0700,
,,,,,,,,,,,,,,,,,,,,,,,172.6830222910503,,,,,,,,,,,,,,,,,,,,,,,,,,,,,,,,,,,,,,,,,,,,,,,,,,,,,,,,,,,,,,,posc_noss,30,15,15,-15,"[5, 2, 1, 0.5]",lin,1,1,8,5,16,92,up,0.5,-0.5,-0.5,172.67602787504438,172.6830222910503,173.17149016598705,173.17149016598705,173.24635904107708,173.24635904107708,173.24635904107708,174.90824954106938,0,,,,,,,,,789846,001,2025-08-15_12h03.37.872,tilt_staircase,2024.2.4,None,2025-08-15 12h03.51.100407 -0700,
,,,,,,,,,,,,,,,,,,,,,,,174.91715366602875,,,,,,,,,,,,,,,,,,,,,,,,,,,,,,,,,,,,,,,,,,,,,,,,,,,,,,,,,,,,,,,negc_poss,30,-15,15,-15,"[5, 2, 1, 0.5]",lin,1,1,8,2,16,93,down,0.5,1.5,1.5,174.90986033307854,174.91715366602875,175.40507937502116,175.40507937502116,175.4787603750592,175.4787603750592,175.4787603750592,178.17533466604073,1,15,,,,,,,,789846,001,2025-08-15_12h03.37.872,tilt_staircase,2024.2.4,None,2025-08-15 12h03.51.100407 -0700,
,,,,,,,,,,,,,,,,,,,,,,,178.18262462504208,,,,,,,,,,,,,,,,,,,,,,,,,,,,,,,,,,,,,,,,,,,,,,,,,,,,,,,,,,,,,,,negc_noss,30,-15,15,-15,"[5, 2, 1, 0.5]",lin,1,1,8,4,16,94,down,0.5,0.0,0.0,178.17689750005957,178.18262462504208,178.67251812503673,178.67251812503673,178.7453607500065,178.7453607500065,178.7453607500065,179.31419837498106,0,,,,,,,,,789846,001,2025-08-15_12h03.37.872,tilt_staircase,2024.2.4,None,2025-08-15 12h03.51.100407 -0700,
,,,,,,,,,,,,,,,,,,,,,,,179.3222612499958,,,,,,,,,,,,,,,,,,,,,,,,,,,,,,,,,,,,,,,,,,,,,,,,,,,,,,,,,,,,,,,posc_poss,30,15,15,-15,"[5, 2, 1, 0.5]",lin,1,1,8,3,16,95,up,0.5,2.0,2.0,179.31522083305754,179.3222612499958,179.81447387498338,179.81447387498338,179.88923745800275,179.88923745800275,179.88923745800275,180.56103983300272,0,15,,,,,,,,789846,001,2025-08-15_12h03.37.872,tilt_staircase,2024.2.4,None,2025-08-15 12h03.51.100407 -0700,
,,,,,,,,,,,,,,,,,,,,,,,180.57265229104087,,,,,,,,,,,,,,,,,,,,,,,,,,,,,,,,,,,,,,,,,,,,,,,,,,,,,,,,,,,,,,,posc_noss,30,15,15,-15,"[5, 2, 1, 0.5]",lin,1,1,8,5,17,96,up,0.5,0.0,0.0,180.56201266602147,180.57265229104087,181.0559368750546,181.0559368750546,181.12858066603076,181.12858066603076,181.1393560830038,181.8997004160192,1,,,,,,,,,789846,001,2025-08-15_12h03.37.872,tilt_staircase,2024.2.4,None,2025-08-15 12h03.51.100407 -0700,
,,,,,,,,,,,,,,,,,,,,,,,181.90529675001744,,,,,,,,,,,,,,,,,,,,,,,,,,,,,,,,,,,,,,,,,,,,,,,,,,,,,,,,,,,,,,,negc_poss,30,-15,15,-15,"[5, 2, 1, 0.5]",lin,1,1,8,2,17,97,down,0.5,1.0,1.0,181.90069575002417,181.90529675001744,182.39819779107347,182.39819779107347,182.47300100000575,182.47300100000575,182.47888658300508,184.41798408306204,1,15,,,,,,,,789846,001,2025-08-15_12h03.37.872,tilt_staircase,2024.2.4,None,2025-08-15 12h03.51.100407 -0700,
,,,,,,,,,,,,,,,,,,,,,,,184.42489083309192,,,,,,,,,,,,,,,,,,,,,,,,,,,,,,,,,,,,,,,,,,,,,,,,,,,,,,,,,,,,,,,posc_negs,30,15,15,-15,"[5, 2, 1, 0.5]",lin,1,1,8,1,17,98,up,0.5,-2.5,-2.5,184.41899450006895,184.42489083309192,184.91554733307566,184.91554733307566,184.9897253330564,184.9897253330564,184.99584704102017,185.7303800410591,0,-15,,,,,,,,789846,001,2025-08-15_12h03.37.872,tilt_staircase,2024.2.4,None,2025-08-15 12h03.51.100407 -0700,
,,,,,,,,,,,,,,,,,,,,,,,185.73843862500507,,,,,,,,,,,,,,,,,,,,,,,,,,,,,,,,,,,,,,,,,,,,,,,,,,,,,,,,,,,,,,,negc_negs,30,-15,15,-15,"[5, 2, 1, 0.5]",lin,1,1,8,0,17,99,up,0.5,-2.5,-2.5,185.7314325410407,185.73843862500507,186.23181783303153,186.23181783303153,186.30626295797992,186.30626295797992,186.30626295797992,186.9141962910071,0,-15,,,,,,,,789846,001,2025-08-15_12h03.37.872,tilt_staircase,2024.2.4,None,2025-08-15 12h03.51.100407 -0700,
,,,,,,,,,,,,,,,,,,,,,,,186.9226213330403,,,,,,,,,,,,,,,,,,,,,,,,,,,,,,,,,,,,,,,,,,,,,,,,,,,,,,,,,,,,,,,posc_poss,30,15,15,-15,"[5, 2, 1, 0.5]",lin,1,1,8,3,17,100,up,0.5,2.5,2.5,186.9152149159927,186.9226213330403,187.41497945808806,187.41497945808806,187.48971937503666,187.48971937503666,187.48971937503666,188.94746070809197,1,15,,,,,,,,789846,001,2025-08-15_12h03.37.872,tilt_staircase,2024.2.4,None,2025-08-15 12h03.51.100407 -0700,
,,,,,,,,,,,,,,,,,,,,,,,188.9545255000703,,,,,,,,,,,,,,,,,,,,,,,,,,,,,,,,,,,,,,,,,,,,,,,,,,,,,,,,,,,,,,,negc_noss,30,-15,15,-15,"[5, 2, 1, 0.5]",lin,1,1,8,4,17,101,up,0.5,0.5,0.5,188.9484291659901,188.9545255000703,189.44768641598057,189.44768641598057,189.5227952080313,189.5227952080313,189.5227952080313,189.9405837910017,0,,,,,,,,,789846,001,2025-08-15_12h03.37.872,tilt_staircase,2024.2.4,None,2025-08-15 12h03.51.100407 -0700,
,,,,,,,,,,,,,,,,,,,,,,,189.94616150006186,,,,,,,,,,,,,,,,,,,,,,,,,,,,,,,,,,,,,,,,,,,,,,,,,,,,,,,,,,,,,,,posc_poss,30,15,15,-15,"[5, 2, 1, 0.5]",lin,1,1,8,3,18,102,down,0.5,2.0,2.0,189.94174187502358,189.94616150006186,190.4393075830303,190.4393075830303,190.50999912503175,190.50999912503175,190.50999912503175,191.05738000001293,0,15,,,,,,,,789846,001,2025-08-15_12h03.37.872,tilt_staircase,2024.2.4,None,2025-08-15 12h03.51.100407 -0700,
,,,,,,,,,,,,,,,,,,,,,,,191.06503679102752,,,,,,,,,,,,,,,,,,,,,,,,,,,,,,,,,,,,,,,,,,,,,,,,,,,,,,,,,,,,,,,posc_noss,30,15,15,-15,"[5, 2, 1, 0.5]",lin,1,1,8,5,18,103,down,0.5,-0.5,-0.5,191.0582772080088,191.06503679102752,191.5561552500585,191.5561552500585,191.62798624997959,191.62798624997959,191.62798624997959,192.1750274579972,0,,,,,,,,,789846,001,2025-08-15_12h03.37.872,tilt_staircase,2024.2.4,None,2025-08-15 12h03.51.100407 -0700,
,,,,,,,,,,,,,,,,,,,,,,,192.18344904098194,,,,,,,,,,,,,,,,,,,,,,,,,,,,,,,,,,,,,,,,,,,,,,,,,,,,,,,,,,,,,,,negc_poss,30,-15,15,-15,"[5, 2, 1, 0.5]",lin,1,1,8,2,18,104,down,0.5,0.5,0.5,192.17614462506026,192.18344904098194,192.67262904101517,192.67262904101517,192.74326666607521,192.74326666607521,192.74326666607521,193.24600000004284,0,15,,,,,,,,789846,001,2025-08-15_12h03.37.872,tilt_staircase,2024.2.4,None,2025-08-15 12h03.51.100407 -0700,
,,,,,,,,,,,,,,,,,,,,,,,193.25487183302175,,,,,,,,,,,,,,,,,,,,,,,,,,,,,,,,,,,,,,,,,,,,,,,,,,,,,,,,,,,,,,,negc_noss,30,-15,15,-15,"[5, 2, 1, 0.5]",lin,1,1,8,4,18,105,up,0.5,1.0,1.0,193.24657320801634,193.25487183302175,193.7447297500912,193.7447297500912,193.8218175000511,193.8218175000511,193.8218175000511,194.52433441602625,1,,,,,,,,,789846,001,2025-08-15_12h03.37.872,tilt_staircase,2024.2.4,None,2025-08-15 12h03.51.100407 -0700,
,,,,,,,,,,,,,,,,,,,,,,,194.52962183300406,,,,,,,,,,,,,,,,,,,,,,,,,,,,,,,,,,,,,,,,,,,,,,,,,,,,,,,,,,,,,,,negc_negs,30,-15,15,-15,"[5, 2, 1, 0.5]",lin,1,1,8,0,18,106,up,0.5,-2.0,-2.0,194.52528050006367,194.52962183300406,195.0216838750057,195.0216838750057,195.09417575004045,195.09417575004045,195.09417575004045,196.60731004108675,1,-15,,,,,,,,789846,001,2025-08-15_12h03.37.872,tilt_staircase,2024.2.4,None,2025-08-15 12h03.51.100407 -0700,
,,,,,,,,,,,,,,,,,,,,,,,196.6157478330424,,,,,,,,,,,,,,,,,,,,,,,,,,,,,,,,,,,,,,,,,,,,,,,,,,,,,,,,,,,,,,,posc_negs,30,15,15,-15,"[5, 2, 1, 0.5]",lin,1,1,8,1,18,107,up,0.5,-2.0,-2.0,196.60836950002704,196.6157478330424,197.097308541066,197.097308541066,197.17252962500788,197.17252962500788,197.17691024998203,198.18035991606303,0,-15,,,,,,,,789846,001,2025-08-15_12h03.37.872,tilt_staircase,2024.2.4,None,2025-08-15 12h03.51.100407 -0700,
,,,,,,,,,,,,,,,,,,,,,,,198.1886717909947,,,,,,,,,,,,,,,,,,,,,,,,,,,,,,,,,,,,,,,,,,,,,,,,,,,,,,,,,,,,,,,posc_noss,30,15,15,-15,"[5, 2, 1, 0.5]",lin,1,1,8,5,19,108,up,0.5,0.0,0.0,198.1813893750077,198.1886717909947,198.68094874999952,198.68094874999952,198.7552990410477,198.7552990410477,198.7552990410477,199.80827625002712,0,,,,,,,,,789846,001,2025-08-15_12h03.37.872,tilt_staircase,2024.2.4,None,2025-08-15 12h03.51.100407 -0700,
,,,,,,,,,,,,,,,,,,,,,,,199.81672083307058,,,,,,,,,,,,,,,,,,,,,,,,,,,,,,,,,,,,,,,,,,,,,,,,,,,,,,,,,,,,,,,posc_poss,30,15,15,-15,"[5, 2, 1, 0.5]",lin,1,1,8,3,19,109,up,0.5,2.5,2.5,199.80976000009105,199.81672083307058,200.30486287502572,200.30486287502572,200.37629766599275,200.37629766599275,200.37629766599275,202.0311341660563,0,15,,,,,,,,789846,001,2025-08-15_12h03.37.872,tilt_staircase,2024.2.4,None,2025-08-15 12h03.51.100407 -0700,
,,,,,,,,,,,,,,,,,,,,,,,202.0394956660457,,,,,,,,,,,,,,,,,,,,,,,,,,,,,,,,,,,,,,,,,,,,,,,,,,,,,,,,,,,,,,,posc_negs,30,15,15,-15,"[5, 2, 1, 0.5]",lin,1,1,8,1,19,110,up,0.5,-1.5,-1.5,202.03233829105739,202.0394956660457,202.53165941603947,202.53165941603947,202.60615937504917,202.60615937504917,202.60615937504917,203.0640577080194,1,-15,,,,,,,,789846,001,2025-08-15_12h03.37.872,tilt_staircase,2024.2.4,None,2025-08-15 12h03.51.100407 -0700,
,,,,,,,,,,,,,,,,,,,,,,,203.0721565000713,,,,,,,,,,,,,,,,,,,,,,,,,,,,,,,,,,,,,,,,,,,,,,,,,,,,,,,,,,,,,,,negc_negs,30,-15,15,-15,"[5, 2, 1, 0.5]",lin,1,1,8,0,19,111,down,0.5,-2.5,-2.5,203.06510420807172,203.0721565000713,203.5643307500286,203.5643307500286,203.63936775003094,203.63936775003094,203.63936775003094,204.70846525009256,0,-15,,,,,,,,789846,001,2025-08-15_12h03.37.872,tilt_staircase,2024.2.4,None,2025-08-15 12h03.51.100407 -0700,
,,,,,,,,,,,,,,,,,,,,,,,204.7160967080854,,,,,,,,,,,,,,,,,,,,,,,,,,,,,,,,,,,,,,,,,,,,,,,,,,,,,,,,,,,,,,,negc_noss,30,-15,15,-15,"[5, 2, 1, 0.5]",lin,1,1,8,4,19,112,down,0.5,0.5,0.5,204.709702666034,204.7160967080854,205.20629375008866,205.20629375008866,205.27910154103301,205.27910154103301,205.27910154103301,205.79452724999283,1,,,,,,,,,789846,001,2025-08-15_12h03.37.872,tilt_staircase,2024.2.4,None,2025-08-15 12h03.51.100407 -0700,
,,,,,,,,,,,,,,,,,,,,,,,205.80502316600177,,,,,,,,,,,,,,,,,,,,,,,,,,,,,,,,,,,,,,,,,,,,,,,,,,,,,,,,,,,,,,,negc_poss,30,-15,15,-15,"[5, 2, 1, 0.5]",lin,1,1,8,2,19,113,up,0.5,1.0,1.0,205.79552054102533,205.80502316600177,206.28818708308972,206.28818708308972,206.3599815410562,206.3599815410562,206.37291383300908,209.56756079103798,1,15,,,,,,,,789846,001,2025-08-15_12h03.37.872,tilt_staircase,2024.2.4,None,2025-08-15 12h03.51.100407 -0700,
,,,,,,,,,,,,,,,,,,,,,,,209.5892104160739,,,,,,,,,,,,,,,,,,,,,,,,,,,,,,,,,,,,,,,,,,,,,,,,,,,,,,,,,,,,,,,posc_noss,30,15,15,-15,"[5, 2, 1, 0.5]",lin,1,1,8,5,20,114,up,0.5,0.5,0.5,209.56863954104483,209.5892104160739,210.06496770808008,210.06496770808008,210.13942850008607,210.13942850008607,210.14533862506505,211.2839475410292,0,,,,,,,,,789846,001,2025-08-15_12h03.37.872,tilt_staircase,2024.2.4,None,2025-08-15 12h03.51.100407 -0700,
,,,,,,,,,,,,,,,,,,,,,,,211.28940729098395,,,,,,,,,,,,,,,,,,,,,,,,,,,,,,,,,,,,,,,,,,,,,,,,,,,,,,,,,,,,,,,negc_negs,30,-15,15,-15,"[5, 2, 1, 0.5]",lin,1,1,8,0,20,115,up,0.5,-2.0,-2.0,211.28495404100977,211.28940729098395,211.78090987505857,211.78090987505857,211.85618808306754,211.85618808306754,211.86245958309155,212.74677399999928,1,-15,,,,,,,,789846,001,2025-08-15_12h03.37.872,tilt_staircase,2024.2.4,None,2025-08-15 12h03.51.100407 -0700,
,,,,,,,,,,,,,,,,,,,,,,,212.75509741599672,,,,,,,,,,,,,,,,,,,,,,,,,,,,,,,,,,,,,,,,,,,,,,,,,,,,,,,,,,,,,,,negc_noss,30,-15,15,-15,"[5, 2, 1, 0.5]",lin,1,1,8,4,20,116,down,0.5,0.0,0.0,212.74776816600934,212.75509741599672,213.2483568750322,213.2483568750322,213.32273616606835,213.32273616606835,213.32273616606835,216.20823508303147,0,,,,,,,,,789846,001,2025-08-15_12h03.37.872,tilt_staircase,2024.2.4,None,2025-08-15 12h03.51.100407 -0700,
,,,,,,,,,,,,,,,,,,,,,,,216.21689999999944,,,,,,,,,,,,,,,,,,,,,,,,,,,,,,,,,,,,,,,,,,,,,,,,,,,,,,,,,,,,,,,posc_poss,30,15,15,-15,"[5, 2, 1, 0.5]",lin,1,1,8,3,20,117,up,0.5,3.0,3.0,216.20982204098254,216.21689999999944,216.70500837499276,216.70500837499276,216.77969770808704,216.77969770808704,216.77969770808704,218.2916393330088,1,15,,,,,,,,789846,001,2025-08-15_12h03.37.872,tilt_staircase,2024.2.4,None,2025-08-15 12h03.51.100407 -0700,
,,,,,,,,,,,,,,,,,,,,,,,218.30059854104184,,,,,,,,,,,,,,,,,,,,,,,,,,,,,,,,,,,,,,,,,,,,,,,,,,,,,,,,,,,,,,,posc_negs,30,15,15,-15,"[5, 2, 1, 0.5]",lin,1,1,8,1,20,118,down,0.5,-2.0,-2.0,218.29322933300864,218.30059854104184,218.78804995806422,218.78804995806422,218.8623172910884,218.8623172910884,218.8623172910884,221.54773483308963,1,-15,,,,,,,,789846,001,2025-08-15_12h03.37.872,tilt_staircase,2024.2.4,None,2025-08-15 12h03.51.100407 -0700,
,,,,,,,,,,,,,,,,,,,,,,,221.5581976249814,,,,,,,,,,,,,,,,,,,,,,,,,,,,,,,,,,,,,,,,,,,,,,,,,,,,,,,,,,,,,,,negc_poss,30,-15,15,-15,"[5, 2, 1, 0.5]",lin,1,1,8,2,20,119,down,0.5,0.5,0.5,221.54896762501448,221.5581976249814,222.04795587505214,222.04795587505214,222.12245191598777,222.12245191598777,222.12245191598777,222.61441054102033,0,15,,,,,,,,789846,001,2025-08-15_12h03.37.872,tilt_staircase,2024.2.4,None,2025-08-15 12h03.51.100407 -0700,
,,,,,,,,,,,,,,,,,,,,,,,222.6224485830171,,,,,,,,,,,,,,,,,,,,,,,,,,,,,,,,,,,,,,,,,,,,,,,,,,,,,,,,,,,,,,,negc_poss,30,-15,15,-15,"[5, 2, 1, 0.5]",lin,1,1,8,2,21,120,up,0.5,1.0,1.0,222.61543116602115,222.6224485830171,223.11500883300323,223.11500883300323,223.189499833039,223.189499833039,223.189499833039,223.7340685829986,0,15,,,,,,,,789846,001,2025-08-15_12h03.37.872,tilt_staircase,2024.2.4,None,2025-08-15 12h03.51.100407 -0700,
,,,,,,,,,,,,,,,,,,,,,,,223.75592095800675,,,,,,,,,,,,,,,,,,,,,,,,,,,,,,,,,,,,,,,,,,,,,,,,,,,,,,,,,,,,,,,posc_noss,30,15,15,-15,"[5, 2, 1, 0.5]",lin,1,1,8,5,21,121,up,0.5,1.0,1.0,223.73504695808515,223.75592095800675,224.23121308302507,224.23121308302507,224.304886583006,224.304886583006,224.31000158307143,224.93353345803916,1,,,,,,,,,789846,001,2025-08-15_12h03.37.872,tilt_staircase,2024.2.4,None,2025-08-15 12h03.51.100407 -0700,
,,,,,,,,,,,,,,,,,,,,,,,224.9390792910708,,,,,,,,,,,,,,,,,,,,,,,,,,,,,,,,,,,,,,,,,,,,,,,,,,,,,,,,,,,,,,,negc_noss,30,-15,15,-15,"[5, 2, 1, 0.5]",lin,1,1,8,4,21,122,up,0.5,0.5,0.5,224.93452075007372,224.9390792910708,225.4312101249816,225.4312101249816,225.5062676660018,225.5062676660018,225.51269154099282,226.4495505830273,1,,,,,,,,,789846,001,2025-08-15_12h03.37.872,tilt_staircase,2024.2.4,None,2025-08-15 12h03.51.100407 -0700,
,,,,,,,,,,,,,,,,,,,,,,,226.45510387502145,,,,,,,,,,,,,,,,,,,,,,,,,,,,,,,,,,,,,,,,,,,,,,,,,,,,,,,,,,,,,,,negc_negs,30,-15,15,-15,"[5, 2, 1, 0.5]",lin,1,1,8,0,21,123,down,0.5,-2.5,-2.5,226.45048366603442,226.45510387502145,226.94702858303208,226.94702858303208,227.02251925005112,227.02251925005112,227.02251925005112,228.04076516604982,1,-15,,,,,,,,789846,001,2025-08-15_12h03.37.872,tilt_staircase,2024.2.4,None,2025-08-15 12h03.51.100407 -0700,
,,,,,,,,,,,,,,,,,,,,,,,228.04839600005653,,,,,,,,,,,,,,,,,,,,,,,,,,,,,,,,,,,,,,,,,,,,,,,,,,,,,,,,,,,,,,,posc_negs,30,15,15,-15,"[5, 2, 1, 0.5]",lin,1,1,8,1,21,124,down,0.5,-2.5,-2.5,228.04171754105482,228.04839600005653,228.53836683300324,228.53836683300324,228.61219787504524,228.61219787504524,228.61219787504524,229.3082786659943,0,-15,,,,,,,,789846,001,2025-08-15_12h03.37.872,tilt_staircase,2024.2.4,None,2025-08-15 12h03.51.100407 -0700,
,,,,,,,,,,,,,,,,,,,,,,,229.31688333302736,,,,,,,,,,,,,,,,,,,,,,,,,,,,,,,,,,,,,,,,,,,,,,,,,,,,,,,,,,,,,,,posc_poss,30,15,15,-15,"[5, 2, 1, 0.5]",lin,1,1,8,3,21,125,down,0.5,2.5,2.5,229.3096571660135,229.31688333302736,229.8047581660794,229.8047581660794,229.87874066608492,229.87874066608492,229.87874066608492,230.90762858302332,1,15,,,,,,,,789846,001,2025-08-15_12h03.37.872,tilt_staircase,2024.2.4,None,2025-08-15 12h03.51.100407 -0700,
,,,,,,,,,,,,,,,,,,,,,,,230.91658216598444,,,,,,,,,,,,,,,,,,,,,,,,,,,,,,,,,,,,,,,,,,,,,,,,,,,,,,,,,,,,,,,posc_poss,30,15,15,-15,"[5, 2, 1, 0.5]",lin,1,1,8,3,22,126,down,0.5,2.0,2.0,230.908850750071,230.91658216598444,231.40519050008152,231.40519050008152,231.47935395804234,231.47935395804234,231.47935395804234,232.1889965829905,1,15,,,,,,,,789846,001,2025-08-15_12h03.37.872,tilt_staircase,2024.2.4,None,2025-08-15 12h03.51.100407 -0700,
,,,,,,,,,,,,,,,,,,,,,,,232.19422162498813,,,,,,,,,,,,,,,,,,,,,,,,,,,,,,,,,,,,,,,,,,,,,,,,,,,,,,,,,,,,,,,negc_poss,30,-15,15,-15,"[5, 2, 1, 0.5]",lin,1,1,8,2,22,127,up,0.5,1.5,1.5,232.19000225001946,232.19422162498813,232.68118775007315,232.68118775007315,232.75565437506884,232.75565437506884,232.7604394160444,235.97444137500133,1,15,,,,,,,,789846,001,2025-08-15_12h03.37.872,tilt_staircase,2024.2.4,None,2025-08-15 12h03.51.100407 -0700,
,,,,,,,,,,,,,,,,,,,,,,,235.98265700007323,,,,,,,,,,,,,,,,,,,,,,,,,,,,,,,,,,,,,,,,,,,,,,,,,,,,,,,,,,,,,,,negc_negs,30,-15,15,-15,"[5, 2, 1, 0.5]",lin,1,1,8,0,22,128,down,0.5,-3.0,-3.0,235.9755472909892,235.98265700007323,236.47193854104262,236.47193854104262,236.54587920801714,236.54587920801714,236.54587920801714,237.13033225003164,0,-15,,,,,,,,789846,001,2025-08-15_12h03.37.872,tilt_staircase,2024.2.4,None,2025-08-15 12h03.51.100407 -0700,
,,,,,,,,,,,,,,,,,,,,,,,237.1385983750224,,,,,,,,,,,,,,,,,,,,,,,,,,,,,,,,,,,,,,,,,,,,,,,,,,,,,,,,,,,,,,,negc_noss,30,-15,15,-15,"[5, 2, 1, 0.5]",lin,1,1,8,4,22,129,down,0.5,0.0,0.0,237.13135233300272,237.1385983750224,237.63120733306278,237.63120733306278,237.70568775001448,237.70568775001448,237.70568775001448,238.2629686660366,0,,,,,,,,,789846,001,2025-08-15_12h03.37.872,tilt_staircase,2024.2.4,None,2025-08-15 12h03.51.100407 -0700,
,,,,,,,,,,,,,,,,,,,,,,,238.2713709580712,,,,,,,,,,,,,,,,,,,,,,,,,,,,,,,,,,,,,,,,,,,,,,,,,,,,,,,,,,,,,,,posc_noss,30,15,15,-15,"[5, 2, 1, 0.5]",lin,1,1,8,5,22,130,down,0.5,0.5,0.5,238.26392579101957,238.2713709580712,238.75470487505663,238.75470487505663,238.82870654098224,238.82870654098224,238.83979483298026,240.14181549998466,1,,,,,,,,,789846,001,2025-08-15_12h03.37.872,tilt_staircase,2024.2.4,None,2025-08-15 12h03.51.100407 -0700,
,,,,,,,,,,,,,,,,,,,,,,,240.15102950006258,,,,,,,,,,,,,,,,,,,,,,,,,,,,,,,,,,,,,,,,,,,,,,,,,,,,,,,,,,,,,,,posc_negs,30,15,15,-15,"[5, 2, 1, 0.5]",lin,1,1,8,1,22,131,up,0.5,-2.0,-2.0,240.14376504102256,240.15102950006258,240.63835395802744,240.63835395802744,240.71202812506817,240.71202812506817,240.71202812506817,241.490550291026,1,-15,,,,,,,,789846,001,2025-08-15_12h03.37.872,tilt_staircase,2024.2.4,None,2025-08-15 12h03.51.100407 -0700,
,,,,,,,,,,,,,,,,,,,,,,,241.4983426249819,,,,,,,,,,,,,,,,,,,,,,,,,,,,,,,,,,,,,,,,,,,,,,,,,,,,,,,,,,,,,,,posc_negs,30,15,15,-15,"[5, 2, 1, 0.5]",lin,1,1,8,1,23,132,down,0.5,-2.5,-2.5,241.49153175007086,241.4983426249819,241.98283670807723,241.98283670807723,242.06286475004163,242.06286475004163,242.06286475004163,242.77476270799525,0,-15,,,,,,,,789846,001,2025-08-15_12h03.37.872,tilt_staircase,2024.2.4,None,2025-08-15 12h03.51.100407 -0700,
,,,,,,,,,,,,,,,,,,,,,,,242.78291404107586,,,,,,,,,,,,,,,,,,,,,,,,,,,,,,,,,,,,,,,,,,,,,,,,,,,,,,,,,,,,,,,posc_noss,30,15,15,-15,"[5, 2, 1, 0.5]",lin,1,1,8,5,23,133,down,0.5,0.0,0.0,242.7761650410248,242.78291404107586,243.27205908298492,243.27205908298492,243.3434235410532,243.3434235410532,243.3434235410532,245.35713633301202,1,,,,,,,,,789846,001,2025-08-15_12h03.37.872,tilt_staircase,2024.2.4,None,2025-08-15 12h03.51.100407 -0700,
,,,,,,,,,,,,,,,,,,,,,,,245.36196912499145,,,,,,,,,,,,,,,,,,,,,,,,,,,,,,,,,,,,,,,,,,,,,,,,,,,,,,,,,,,,,,,negc_noss,30,-15,15,-15,"[5, 2, 1, 0.5]",lin,1,1,8,4,23,134,up,0.5,0.5,0.5,245.3576361250598,245.36196912499145,245.8477798330132,245.8477798330132,245.92291408299934,245.92291408299934,245.92890583304688,249.07461950008292,0,,,,,,,,,789846,001,2025-08-15_12h03.37.872,tilt_staircase,2024.2.4,None,2025-08-15 12h03.51.100407 -0700,
,,,,,,,,,,,,,,,,,,,,,,,249.08287662500516,,,,,,,,,,,,,,,,,,,,,,,,,,,,,,,,,,,,,,,,,,,,,,,,,,,,,,,,,,,,,,,posc_poss,30,15,15,-15,"[5, 2, 1, 0.5]",lin,1,1,8,3,23,135,down,0.5,1.5,1.5,249.07576816598885,249.08287662500516,249.57146191608626,249.57146191608626,249.64575954107568,249.64575954107568,249.64575954107568,250.50786416605115,1,15,,,,,,,,789846,001,2025-08-15_12h03.37.872,tilt_staircase,2024.2.4,None,2025-08-15 12h03.51.100407 -0700,
,,,,,,,,,,,,,,,,,,,,,,,250.51570362504572,,,,,,,,,,,,,,,,,,,,,,,,,,,,,,,,,,,,,,,,,,,,,,,,,,,,,,,,,,,,,,,negc_poss,30,-15,15,-15,"[5, 2, 1, 0.5]",lin,1,1,8,2,23,136,down,0.5,1.0,1.0,250.50888829107862,250.51570362504572,251.004748083069,251.004748083069,251.07849975000136,251.07849975000136,251.07849975000136,251.63253033300862,0,15,,,,,,,,789846,001,2025-08-15_12h03.37.872,tilt_staircase,2024.2.4,None,2025-08-15 12h03.51.100407 -0700,
,,,,,,,,,,,,,,,,,,,,,,,251.63806916598696,,,,,,,,,,,,,,,,,,,,,,,,,,,,,,,,,,,,,,,,,,,,,,,,,,,,,,,,,,,,,,,negc_negs,30,-15,15,-15,"[5, 2, 1, 0.5]",lin,1,1,8,0,23,137,up,0.5,-2.5,-2.5,251.63352033297997,251.63806916598696,252.13151712506078,252.13151712506078,252.20604058308527,252.20604058308527,252.20604058308527,254.1750811660895,0,-15,,,,,,,,789846,001,2025-08-15_12h03.37.872,tilt_staircase,2024.2.4,None,2025-08-15 12h03.51.100407 -0700,
,,,,,,,,,,,,,,,,,,,,,,,254.1839275000384,,,,,,,,,,,,,,,,,,,,,,,,,,,,,,,,,,,,,,,,,,,,,,,,,,,,,,,,,,,,,,,posc_noss,30,15,15,-15,"[5, 2, 1, 0.5]",lin,1,1,8,5,24,138,down,0.5,-0.5,-0.5,254.17660758306738,254.1839275000384,254.67148741602432,254.67148741602432,254.7457268750295,254.7457268750295,254.7457268750295,256.03071320801973,0,,,,,,,,,789846,001,2025-08-15_12h03.37.872,tilt_staircase,2024.2.4,None,2025-08-15 12h03.51.100407 -0700,
,,,,,,,,,,,,,,,,,,,,,,,256.03827591601294,,,,,,,,,,,,,,,,,,,,,,,,,,,,,,,,,,,,,,,,,,,,,,,,,,,,,,,,,,,,,,,negc_noss,30,-15,15,-15,"[5, 2, 1, 0.5]",lin,1,1,8,4,24,139,up,0.5,1.0,1.0,256.0317213750677,256.03827591601294,256.531358874985,256.531358874985,256.605321791023,256.605321791023,256.605321791023,257.0249759160215,1,,,,,,,,,789846,001,2025-08-15_12h03.37.872,tilt_staircase,2024.2.4,None,2025-08-15 12h03.51.100407 -0700,
,,,,,,,,,,,,,,,,,,,,,,,257.0335404580692,,,,,,,,,,,,,,,,,,,,,,,,,,,,,,,,,,,,,,,,,,,,,,,,,,,,,,,,,,,,,,,posc_poss,30,15,15,-15,"[5, 2, 1, 0.5]",lin,1,1,8,3,24,140,down,0.5,1.0,1.0,257.02638470800593,257.0335404580692,257.52175708301365,257.52175708301365,257.59544983308297,257.59544983308297,257.59544983308297,259.541488958057,1,15,,,,,,,,789846,001,2025-08-15_12h03.37.872,tilt_staircase,2024.2.4,None,2025-08-15 12h03.51.100407 -0700,
,,,,,,,,,,,,,,,,,,,,,,,259.5503178330837,,,,,,,,,,,,,,,,,,,,,,,,,,,,,,,,,,,,,,,,,,,,,,,,,,,,,,,,,,,,,,,posc_negs,30,15,15,-15,"[5, 2, 1, 0.5]",lin,1,1,8,1,24,141,up,0.5,-2.0,-2.0,259.5430041659856,259.5503178330837,260.0382600000594,260.0382600000594,260.1119397500297,260.1119397500297,260.1119397500297,261.09152708307374,0,-15,,,,,,,,789846,001,2025-08-15_12h03.37.872,tilt_staircase,2024.2.4,None,2025-08-15 12h03.51.100407 -0700,
,,,,,,,,,,,,,,,,,,,,,,,261.1004599580774,,,,,,,,,,,,,,,,,,,,,,,,,,,,,,,,,,,,,,,,,,,,,,,,,,,,,,,,,,,,,,,negc_negs,30,-15,15,-15,"[5, 2, 1, 0.5]",lin,1,1,8,0,24,142,up,0.5,-2.0,-2.0,261.0928944160696,261.1004599580774,261.5880210000323,261.5880210000323,261.6621101660421,261.6621101660421,261.6621101660421,266.14688112505246,0,-15,,,,,,,,789846,001,2025-08-15_12h03.37.872,tilt_staircase,2024.2.4,None,2025-08-15 12h03.51.100407 -0700,
,,,,,,,,,,,,,,,,,,,,,,,266.15545116597787,,,,,,,,,,,,,,,,,,,,,,,,,,,,,,,,,,,,,,,,,,,,,,,,,,,,,,,,,,,,,,,negc_poss,30,-15,15,-15,"[5, 2, 1, 0.5]",lin,1,1,8,2,24,143,up,0.5,1.5,1.5,266.1480276660295,266.15545116597787,266.64727312501054,266.64727312501054,266.7229095409857,266.7229095409857,266.7229095409857,267.541704916046,1,15,,,,,,,,789846,001,2025-08-15_12h03.37.872,tilt_staircase,2024.2.4,None,2025-08-15 12h03.51.100407 -0700,
,,,,,,,,,,,,,,,,,,,,,,,267.55052045802586,,,,,,,,,,,,,,,,,,,,,,,,,,,,,,,,,,,,,,,,,,,,,,,,,,,,,,,,,,,,,,,posc_noss,30,15,15,-15,"[5, 2, 1, 0.5]",lin,1,1,8,5,25,144,up,0.5,0.0,0.0,267.5431917910464,267.55052045802586,268.0385650410317,268.0385650410317,268.11215875006747,268.11215875006747,268.11215875006747,268.62437308300287,0,,,,,,,,,789846,001,2025-08-15_12h03.37.872,tilt_staircase,2024.2.4,None,2025-08-15 12h03.51.100407 -0700,
,,,,,,,,,,,,,,,,,,,,,,,268.6330968750408,,,,,,,,,,,,,,,,,,,,,,,,,,,,,,,,,,,,,,,,,,,,,,,,,,,,,,,,,,,,,,,posc_poss,30,15,15,-15,"[5, 2, 1, 0.5]",lin,1,1,8,3,25,145,down,0.5,0.5,0.5,268.62600720801856,268.6330968750408,269.12217254098505,269.12217254098505,269.19599491602276,269.19599491602276,269.19599491602276,269.7567646660609,0,15,,,,,,,,789846,001,2025-08-15_12h03.37.872,tilt_staircase,2024.2.4,None,2025-08-15 12h03.51.100407 -0700,
,,,,,,,,,,,,,,,,,,,,,,,269.76434624998365,,,,,,,,,,,,,,,,,,,,,,,,,,,,,,,,,,,,,,,,,,,,,,,,,,,,,,,,,,,,,,,negc_noss,30,-15,15,-15,"[5, 2, 1, 0.5]",lin,1,1,8,4,25,146,down,0.5,0.5,0.5,269.75772870809305,269.76434624998365,270.25568050006405,270.25568050006405,270.32898920797743,270.32898920797743,270.32898920797743,273.01711537502706,1,,,,,,,,,789846,001,2025-08-15_12h03.37.872,tilt_staircase,2024.2.4,None,2025-08-15 12h03.51.100407 -0700,
,,,,,,,,,,,,,,,,,,,,,,,273.02255829109345,,,,,,,,,,,,,,,,,,,,,,,,,,,,,,,,,,,,,,,,,,,,,,,,,,,,,,,,,,,,,,,posc_negs,30,15,15,-15,"[5, 2, 1, 0.5]",lin,1,1,8,1,25,147,up,0.5,-1.5,-1.5,273.0181614580797,273.02255829109345,273.51419075008016,273.51419075008016,273.58937379100826,273.58937379100826,273.5954177080421,275.03333237499464,1,-15,,,,,,,,789846,001,2025-08-15_12h03.37.872,tilt_staircase,2024.2.4,None,2025-08-15 12h03.51.100407 -0700,
,,,,,,,,,,,,,,,,,,,,,,,275.0387169159949,,,,,,,,,,,,,,,,,,,,,,,,,,,,,,,,,,,,,,,,,,,,,,,,,,,,,,,,,,,,,,,negc_poss,30,-15,15,-15,"[5, 2, 1, 0.5]",lin,1,1,8,2,25,148,down,0.5,1.0,1.0,275.03430649999063,275.0387169159949,275.5317871660227,275.5317871660227,275.6103339160327,275.6103339160327,275.6103339160327,276.93362970801536,0,15,,,,,,,,789846,001,2025-08-15_12h03.37.872,tilt_staircase,2024.2.4,None,2025-08-15 12h03.51.100407 -0700,
,,,,,,,,,,,,,,,,,,,,,,,276.9392417910276,,,,,,,,,,,,,,,,,,,,,,,,,,,,,,,,,,,,,,,,,,,,,,,,,,,,,,,,,,,,,,,negc_negs,30,-15,15,-15,"[5, 2, 1, 0.5]",lin,1,1,8,0,25,149,up,0.5,-1.5,-1.5,276.9346452500904,276.9392417910276,277.43069566600025,277.43069566600025,277.5059207910672,277.5059207910672,277.51194645802025,278.0502716660267,1,-15,,,,,,,,789846,001,2025-08-15_12h03.37.872,tilt_staircase,2024.2.4,None,2025-08-15 12h03.51.100407 -0700,
,,,,,,,,,,,,,,,,,,,,,,,,,,,,,,,,,,,,,,,,,,,,,,,,,,,,,,,,,,,,,,,,,,,,,,,,,,,,,,,,,,,,,,,,,,,,,,,,,,,,,,,,,,,,,,,,,278.0503979580244,278.0584400410298,278.0584400410298,278.9911516250577,right,0.9280354590155184,None,789846,001,2025-08-15_12h03.37.872,tilt_staircase,2024.2.4,None,2025-08-15 12h03.51.100407 -0700,
