thisRow.t,notes,trials.label,trials.nReps,trials.startVal,trials.maxVal,trials.minVal,trials.stepSizes,trials.stepType,trials.nUp,trials.nDown,trials.nReversals,trials.thisIndex,trials.thisRepN,trials.thisN,trials.direction,trials.stepSize,trials.intensity,trial.started,resp.started,text_2.started,surround.started,center.started,surround.stopped,center.stopped,text_2.stopped,text_3.started,trial.stopped,trials.response,participant,session,date,expName,psychopyVersion,frameRate,expStart,
0.10067441698629409,,high_start,50,20,30,-30,"[5, 2, 1, 0.5, 0.25, 0.1]",lin,1,1,7,0,1,0,start,5,20,0.09594962501432747,0.10067441698629409,0.10067441698629409,0.4947775830514729,0.4947775830514729,0.5906134999822825,0.5906134999822825,0.5906134999822825,0.5906134999822825,1.7981672079768032,1,931715,001,2025-08-11_14h25.18.860,tilt_staircase,2024.2.4,None,2025-08-11 14h25.24.841057 -0700,
1.8373541670152918,,low_start,50,-20,30,-30,"[5, 2, 1, 0.5, 0.25, 0.1]",lin,1,1,7,1,1,1,start,5,-20,1.7983669999521226,1.8373541670152918,1.8373541670152918,2.2913337500067428,2.2913337500067428,2.3876763329608366,2.3876763329608366,2.3241846669698134,2.390748457983136,3.8113172920420766,0,931715,001,2025-08-11_14h25.18.860,tilt_staircase,2024.2.4,None,2025-08-11 14h25.24.841057 -0700,
3.8217416249681264,,low_start,50,-20,30,-30,"[5, 2, 1, 0.5, 0.25, 0.1]",lin,1,1,7,1,2,2,up,5,-15,3.8114938749931753,3.8217416249681264,3.8217416249681264,4.308782791951671,4.308782791951671,4.4052852500462905,4.4052852500462905,4.308782791951671,4.408943000016734,5.741979707963765,0,931715,001,2025-08-11_14h25.18.860,tilt_staircase,2024.2.4,None,2025-08-11 14h25.24.841057 -0700,
5.74921658297535,,high_start,50,20,30,-30,"[5, 2, 1, 0.5, 0.25, 0.1]",lin,1,1,7,0,2,3,down,5,15,5.742139582987875,5.74921658297535,5.74921658297535,6.2393991249846295,6.2393991249846295,6.325754082994536,6.325754082994536,6.243013708037324,6.339516749954782,7.492662291973829,1,931715,001,2025-08-11_14h25.18.860,tilt_staircase,2024.2.4,None,2025-08-11 14h25.24.841057 -0700,
7.495301999966614,,low_start,50,-20,30,-30,"[5, 2, 1, 0.5, 0.25, 0.1]",lin,1,1,7,1,3,4,up,5,-10,7.492823958047666,7.495301999966614,7.495301999966614,7.990173208061606,7.990173208061606,8.077148791984655,8.077148791984655,7.993611083016731,8.090256417053752,8.97692033299245,0,931715,001,2025-08-11_14h25.18.860,tilt_staircase,2024.2.4,None,2025-08-11 14h25.24.841057 -0700,
8.9797142080497,,high_start,50,20,30,-30,"[5, 2, 1, 0.5, 0.25, 0.1]",lin,1,1,7,0,3,5,down,5,10,8.977076082956046,8.9797142080497,8.9797142080497,9.47424354206305,9.47424354206305,9.560598750016652,9.560598750016652,9.47755099995993,9.574285499984398,10.393581500044093,1,931715,001,2025-08-11_14h25.18.860,tilt_staircase,2024.2.4,None,2025-08-11 14h25.24.841057 -0700,
10.39508583303541,,low_start,50,-20,30,-30,"[5, 2, 1, 0.5, 0.25, 0.1]",lin,1,1,7,1,4,6,up,5,-5,10.393730625044554,10.39508583303541,10.39508583303541,10.891608292004094,10.891608292004094,10.978475332958624,10.978475332958624,10.891608292004094,10.99160591699183,16.013832041993737,0,931715,001,2025-08-11_14h25.18.860,tilt_staircase,2024.2.4,None,2025-08-11 14h25.24.841057 -0700,
16.016951041994616,,high_start,50,20,30,-30,"[5, 2, 1, 0.5, 0.25, 0.1]",lin,1,1,7,0,4,7,down,5,5,16.013983250013553,16.016951041994616,16.016951041994616,16.510772999958135,16.510772999958135,16.598043416975997,16.598043416975997,16.514326332951896,16.610818541957997,18.01736966695171,1,931715,001,2025-08-11_14h25.18.860,tilt_staircase,2024.2.4,None,2025-08-11 14h25.24.841057 -0700,
18.02807408303488,,low_start,50,-20,30,-30,"[5, 2, 1, 0.5, 0.25, 0.1]",lin,1,1,7,1,5,8,up,5,0,18.01753854204435,18.02807408303488,18.02807408303488,18.515638999990188,18.515638999990188,18.611801541992463,18.611801541992463,18.515638999990188,18.611801541992463,22.24896550003905,1,931715,001,2025-08-11_14h25.18.860,tilt_staircase,2024.2.4,None,2025-08-11 14h25.24.841057 -0700,
22.251715083024465,,high_start,50,20,30,-30,"[5, 2, 1, 0.5, 0.25, 0.1]",lin,1,1,7,0,5,9,down,5,0,22.24919141700957,22.251715083024465,22.251715083024465,22.746842124965042,22.746842124965042,22.832895208033733,22.832895208033733,22.74951154203154,22.846977832959965,24.053141582990065,0,931715,001,2025-08-11_14h25.18.860,tilt_staircase,2024.2.4,None,2025-08-11 14h25.24.841057 -0700,
24.06411191704683,,high_start,50,20,30,-30,"[5, 2, 1, 0.5, 0.25, 0.1]",lin,1,1,7,0,6,10,up,2,2,24.05330312496517,24.06411191704683,24.06411191704683,24.550742625026032,24.550742625026032,24.647709000040777,24.647709000040777,24.550742625026032,24.65044304204639,25.834359125001356,1,931715,001,2025-08-11_14h25.18.860,tilt_staircase,2024.2.4,None,2025-08-11 14h25.24.841057 -0700,
25.83713300002273,,low_start,50,-20,30,-30,"[5, 2, 1, 0.5, 0.25, 0.1]",lin,1,1,7,1,6,11,down,2,-2,25.834520375006832,25.83713300002273,25.83713300002273,26.331801249994896,26.331801249994896,26.41854770795908,26.41854770795908,26.33490779204294,26.431877000024542,27.518646250013262,0,931715,001,2025-08-11_14h25.18.860,tilt_staircase,2024.2.4,None,2025-08-11 14h25.24.841057 -0700,
27.52138129202649,,low_start,50,-20,30,-30,"[5, 2, 1, 0.5, 0.25, 0.1]",lin,1,1,7,1,7,12,up,1,-1,27.51882704196032,27.52138129202649,27.52138129202649,28.01592079200782,28.01592079200782,28.10252162499819,28.10252162499819,28.019051791983657,28.115957500063814,29.243206041981466,0,931715,001,2025-08-11_14h25.18.860,tilt_staircase,2024.2.4,None,2025-08-11 14h25.24.841057 -0700,
29.249826750019565,,high_start,50,20,30,-30,"[5, 2, 1, 0.5, 0.25, 0.1]",lin,1,1,7,0,7,13,down,1,1,29.24334425001871,29.249826750019565,29.249826750019565,29.73729308298789,29.73729308298789,29.83345808298327,29.83345808298327,29.73729308298789,29.838240707991645,33.50459312496241,1,931715,001,2025-08-11_14h25.18.860,tilt_staircase,2024.2.4,None,2025-08-11 14h25.24.841057 -0700,
33.50726083305199,,low_start,50,-20,30,-30,"[5, 2, 1, 0.5, 0.25, 0.1]",lin,1,1,7,1,8,14,up,1,0,33.50475916697178,33.50726083305199,33.50726083305199,34.00197062501684,34.00197062501684,34.088614791980945,34.088614791980945,34.00528095802292,34.10204500006512,35.12192862504162,0,931715,001,2025-08-11_14h25.18.860,tilt_staircase,2024.2.4,None,2025-08-11 14h25.24.841057 -0700,
35.12461249995977,,high_start,50,20,30,-30,"[5, 2, 1, 0.5, 0.25, 0.1]",lin,1,1,7,0,8,15,down,1,0,35.12208295799792,35.12461249995977,35.12461249995977,35.61937362502795,35.61937362502795,35.706011667032726,35.706011667032726,35.62284375005402,35.719455166952685,36.76098408305552,0,931715,001,2025-08-11_14h25.18.860,tilt_staircase,2024.2.4,None,2025-08-11 14h25.24.841057 -0700,
36.76990983297583,,low_start,50,-20,30,-30,"[5, 2, 1, 0.5, 0.25, 0.1]",lin,1,1,7,1,9,16,up,1,1,36.76115575002041,36.76990983297583,36.76990983297583,37.256874416954815,37.256874416954815,37.35348241706379,37.35348241706379,37.256874416954815,37.356977125047706,38.326326583046466,0,931715,001,2025-08-11_14h25.18.860,tilt_staircase,2024.2.4,None,2025-08-11 14h25.24.841057 -0700,
38.3372847919818,,high_start,50,20,30,-30,"[5, 2, 1, 0.5, 0.25, 0.1]",lin,1,1,7,0,9,17,up,0.5,0.5,38.326469582971185,38.3372847919818,38.3372847919818,38.82435687503312,38.82435687503312,38.92082025005948,38.92082025005948,38.82435687503312,38.924324042047374,40.54073845804669,0,931715,001,2025-08-11_14h25.18.860,tilt_staircase,2024.2.4,None,2025-08-11 14h25.24.841057 -0700,
40.54322008299641,,high_start,50,20,30,-30,"[5, 2, 1, 0.5, 0.25, 0.1]",lin,1,1,7,0,10,18,up,0.5,1.0,40.5408874170389,40.54322008299641,40.54322008299641,41.03845758305397,41.03845758305397,41.12511754198931,41.12511754198931,41.04168675001711,41.13851491699461,42.59530887496658,1,931715,001,2025-08-11_14h25.18.860,tilt_staircase,2024.2.4,None,2025-08-11 14h25.24.841057 -0700,
42.605874167056754,,low_start,50,-20,30,-30,"[5, 2, 1, 0.5, 0.25, 0.1]",lin,1,1,7,1,10,19,up,1,2,42.595457207993604,42.605874167056754,42.605874167056754,43.093339708051644,43.093339708051644,43.18945950001944,43.18945950001944,43.093339708051644,43.19300650001969,43.97925366705749,1,931715,001,2025-08-11_14h25.18.860,tilt_staircase,2024.2.4,None,2025-08-11 14h25.24.841057 -0700,
43.98984116700012,,low_start,50,-20,30,-30,"[5, 2, 1, 0.5, 0.25, 0.1]",lin,1,1,7,1,11,20,down,0.5,1.5,43.979432708001696,43.98984116700012,43.98984116700012,44.4773097919533,44.4773097919533,44.57340412505437,44.57340412505437,44.4773097919533,44.57682974997442,45.563062708009966,1,931715,001,2025-08-11_14h25.18.860,tilt_staircase,2024.2.4,None,2025-08-11 14h25.24.841057 -0700,
45.573896792018786,,high_start,50,20,30,-30,"[5, 2, 1, 0.5, 0.25, 0.1]",lin,1,1,7,0,11,21,down,0.25,0.75,45.56321083300281,45.573896792018786,45.573896792018786,46.06096933304798,46.06096933304798,46.15999004198238,46.15999004198238,46.06096933304798,46.174137499998324,47.86386066698469,1,931715,001,2025-08-11_14h25.18.860,tilt_staircase,2024.2.4,None,2025-08-11 14h25.24.841057 -0700,
47.87492412503343,,low_start,50,-20,30,-30,"[5, 2, 1, 0.5, 0.25, 0.1]",lin,1,1,7,1,12,22,down,0.5,1.0,47.86401074996684,47.87492412503343,47.87492412503343,48.361962042050436,48.361962042050436,48.458483707974665,48.458483707974665,48.361962042050436,48.46197349997237,49.39498420804739,1,931715,001,2025-08-11_14h25.18.860,tilt_staircase,2024.2.4,None,2025-08-11 14h25.24.841057 -0700,
49.39756045804825,,high_start,50,20,30,-30,"[5, 2, 1, 0.5, 0.25, 0.1]",lin,1,1,7,0,12,23,down,0.25,0.5,49.3951278750319,49.39756045804825,49.39756045804825,49.892474208027124,49.892474208027124,49.97917158296332,49.97917158296332,49.895805416977964,49.992556042037904,50.71525379200466,0,931715,001,2025-08-11_14h25.18.860,tilt_staircase,2024.2.4,None,2025-08-11 14h25.24.841057 -0700,
50.72622966696508,,low_start,50,-20,30,-30,"[5, 2, 1, 0.5, 0.25, 0.1]",lin,1,1,7,1,13,24,down,0.5,0.5,50.71541370800696,50.72622966696508,50.72622966696508,51.213495458010584,51.213495458010584,51.309788541984744,51.309788541984744,51.213495458010584,51.31310470798053,51.94617308303714,0,931715,001,2025-08-11_14h25.18.860,tilt_staircase,2024.2.4,None,2025-08-11 14h25.24.841057 -0700,
51.948845291975886,,high_start,50,20,30,-30,"[5, 2, 1, 0.5, 0.25, 0.1]",lin,1,1,7,0,13,25,up,0.1,0.6,51.946326542063616,51.948845291975886,51.948845291975886,52.443644499988295,52.443644499988295,52.53034520801157,52.53034520801157,52.44720850000158,52.543639292009175,53.130015832954086,0,931715,001,2025-08-11_14h25.18.860,tilt_staircase,2024.2.4,None,2025-08-11 14h25.24.841057 -0700,
53.13265812501777,,high_start,50,20,30,-30,"[5, 2, 1, 0.5, 0.25, 0.1]",lin,1,1,7,0,14,26,up,0.1,0.7,53.130173332989216,53.13265812501777,53.13265812501777,53.62748291704338,53.62748291704338,53.71426425001118,53.71426425001118,53.6309647919843,53.72756916703656,55.59810008306522,0,931715,001,2025-08-11_14h25.18.860,tilt_staircase,2024.2.4,None,2025-08-11 14h25.24.841057 -0700,
55.600833749980666,,low_start,50,-20,30,-30,"[5, 2, 1, 0.5, 0.25, 0.1]",lin,1,1,7,1,14,27,up,0.25,0.75,55.59826274996158,55.600833749980666,55.600833749980666,56.09525820799172,56.09525820799172,56.18180116696749,56.18180116696749,56.098523500026204,56.19533570797648,57.19841866695788,0,931715,001,2025-08-11_14h25.18.860,tilt_staircase,2024.2.4,None,2025-08-11 14h25.24.841057 -0700,
57.20107554201968,,low_start,50,-20,30,-30,"[5, 2, 1, 0.5, 0.25, 0.1]",lin,1,1,7,1,15,28,up,0.25,1.0,57.19858225004282,57.20107554201968,57.20107554201968,57.69600870797876,57.69600870797876,57.78249179199338,57.78249179199338,57.69945054198615,57.796046957955696,59.74996020796243,0,931715,001,2025-08-11_14h25.18.860,tilt_staircase,2024.2.4,None,2025-08-11 14h25.24.841057 -0700,
59.752790292026475,,high_start,50,20,30,-30,"[5, 2, 1, 0.5, 0.25, 0.1]",lin,1,1,7,0,15,29,up,0.1,0.7999999999999999,59.750124583020806,59.752790292026475,59.752790292026475,60.24714304204099,60.24714304204099,60.33328912500292,60.33328912500292,60.25027883297298,60.34719416697044,61.01701974996831,0,931715,001,2025-08-11_14h25.18.860,tilt_staircase,2024.2.4,None,2025-08-11 14h25.24.841057 -0700,
61.01965312496759,,low_start,50,-20,30,-30,"[5, 2, 1, 0.5, 0.25, 0.1]",lin,1,1,7,1,16,30,up,0.25,1.25,61.017184250056744,61.01965312496759,61.01965312496759,61.51437241700478,61.51437241700478,61.60094566701446,61.60094566701446,61.51769670797512,61.61444229201879,62.55094295798335,1,931715,001,2025-08-11_14h25.18.860,tilt_staircase,2024.2.4,None,2025-08-11 14h25.24.841057 -0700,
62.55366562504787,,high_start,50,20,30,-30,"[5, 2, 1, 0.5, 0.25, 0.1]",lin,1,1,7,0,16,31,up,0.1,0.8999999999999999,62.55109475005884,62.55366562504787,62.55366562504787,63.048411083058454,63.048411083058454,63.13501600001473,63.13501600001473,63.05181408300996,63.14846212498378,64.45522158301901,1,931715,001,2025-08-11_14h25.18.860,tilt_staircase,2024.2.4,None,2025-08-11 14h25.24.841057 -0700,
64.46571866702288,,high_start,50,20,30,-30,"[5, 2, 1, 0.5, 0.25, 0.1]",lin,1,1,7,0,17,32,down,0.1,0.7999999999999999,64.45538341696374,64.46571866702288,64.46571866702288,64.95325020805467,64.95325020805467,65.04929541703314,65.04929541703314,64.95325020805467,65.0526103329612,66.0053887499962,1,931715,001,2025-08-11_14h25.18.860,tilt_staircase,2024.2.4,None,2025-08-11 14h25.24.841057 -0700,
66.01649987499695,,low_start,50,-20,30,-30,"[5, 2, 1, 0.5, 0.25, 0.1]",lin,1,1,7,1,17,33,down,0.1,1.15,66.00553720805328,66.01649987499695,66.01649987499695,66.5034937079763,66.5034937079763,66.6000048329588,66.6000048329588,66.5034937079763,66.60345929197501,67.28633866703603,1,931715,001,2025-08-11_14h25.18.860,tilt_staircase,2024.2.4,None,2025-08-11 14h25.24.841057 -0700,
67.28892441699281,,low_start,50,-20,30,-30,"[5, 2, 1, 0.5, 0.25, 0.1]",lin,1,1,7,1,18,34,down,0.1,1.0499999999999998,67.28649037505966,67.28892441699281,67.28892441699281,67.78394816699438,67.78394816699438,67.87080875004176,67.87080875004176,67.7875637919642,67.88395708298776,68.83715999999549,1,931715,001,2025-08-11_14h25.18.860,tilt_staircase,2024.2.4,None,2025-08-11 14h25.24.841057 -0700,
68.83978741697501,,high_start,50,20,30,-30,"[5, 2, 1, 0.5, 0.25, 0.1]",lin,1,1,7,0,18,35,down,0.1,0.7,68.83730508305598,68.83978741697501,68.83978741697501,69.33818279195111,69.33818279195111,69.43462229205761,69.43462229205761,69.33818279195111,69.43462229205761,70.59089566697367,1,931715,001,2025-08-11_14h25.18.860,tilt_staircase,2024.2.4,None,2025-08-11 14h25.24.841057 -0700,
70.60184279200621,,high_start,50,20,30,-30,"[5, 2, 1, 0.5, 0.25, 0.1]",lin,1,1,7,0,19,36,down,0.1,0.6,70.59106187499128,70.60184279200621,70.60184279200621,71.08910583297256,71.08910583297256,71.18955975002609,71.18955975002609,71.08910583297256,71.20204912498593,71.87176758295391,1,931715,001,2025-08-11_14h25.18.860,tilt_staircase,2024.2.4,None,2025-08-11 14h25.24.841057 -0700,
71.87446229206398,,low_start,50,-20,30,-30,"[5, 2, 1, 0.5, 0.25, 0.1]",lin,1,1,7,1,19,37,down,0.1,0.9499999999999998,71.87191700004041,71.87446229206398,71.87446229206398,72.36931829201058,72.36931829201058,72.45552283304278,72.45552283304278,72.37252624996472,72.46933779201936,73.22228179196827,1,931715,001,2025-08-11_14h25.18.860,tilt_staircase,2024.2.4,None,2025-08-11 14h25.24.841057 -0700,
73.22497316705994,,high_start,50,20,30,-30,"[5, 2, 1, 0.5, 0.25, 0.1]",lin,1,1,7,0,20,38,down,0.1,0.5,73.2224439169513,73.22497316705994,73.22497316705994,73.71989154198673,73.71989154198673,73.8200324169593,73.8200324169593,73.72360987495631,73.8200324169593,74.98986995802261,1,931715,001,2025-08-11_14h25.18.860,tilt_staircase,2024.2.4,None,2025-08-11 14h25.24.841057 -0700,
74.9926334170159,,low_start,50,-20,30,-30,"[5, 2, 1, 0.5, 0.25, 0.1]",lin,1,1,7,1,20,39,down,0.1,0.8499999999999999,74.99001970805693,74.9926334170159,74.9926334170159,75.48734608304221,75.48734608304221,75.57406537502538,75.57406537502538,75.49070904206019,75.587421208038,76.37374679197092,1,931715,001,2025-08-11_14h25.18.860,tilt_staircase,2024.2.4,None,2025-08-11 14h25.24.841057 -0700,
76.37643183302134,,low_start,50,-20,30,-30,"[5, 2, 1, 0.5, 0.25, 0.1]",lin,1,1,7,1,21,40,down,0.1,0.7499999999999999,76.37390233296901,76.37643183302134,76.37643183302134,76.87136541702785,76.87136541702785,76.95791825000197,76.95791825000197,76.87466283305548,76.97139125003014,78.99187754199374,1,931715,001,2025-08-11_14h25.18.860,tilt_staircase,2024.2.4,None,2025-08-11 14h25.24.841057 -0700,
78.99459566699807,,high_start,50,20,30,-30,"[5, 2, 1, 0.5, 0.25, 0.1]",lin,1,1,7,0,21,41,down,0.1,0.4,78.99202879203949,78.99459566699807,78.99459566699807,79.48916200001258,79.48916200001258,79.57588045799639,79.57588045799639,79.49277937505394,79.5892101250356,80.659429750056,1,931715,001,2025-08-11_14h25.18.860,tilt_staircase,2024.2.4,None,2025-08-11 14h25.24.841057 -0700,
80.66211191704497,,low_start,50,-20,30,-30,"[5, 2, 1, 0.5, 0.25, 0.1]",lin,1,1,7,1,22,42,down,0.1,0.6499999999999999,80.65958687500097,80.66211191704497,80.66211191704497,81.16019291698467,81.16019291698467,81.25664787506685,81.25664787506685,81.17328049999196,81.25664787506685,83.39384666702244,1,931715,001,2025-08-11_14h25.18.860,tilt_staircase,2024.2.4,None,2025-08-11 14h25.24.841057 -0700,
83.39662220806349,,high_start,50,20,30,-30,"[5, 2, 1, 0.5, 0.25, 0.1]",lin,1,1,7,0,22,43,down,0.1,0.30000000000000004,83.39400662505068,83.39662220806349,83.39662220806349,83.89102862495929,83.89102862495929,83.97786316706333,83.97786316706333,83.89431716699619,83.99115733301733,85.1612517919857,1,931715,001,2025-08-11_14h25.18.860,tilt_staircase,2024.2.4,None,2025-08-11 14h25.24.841057 -0700,
85.16396333300509,,low_start,50,-20,30,-30,"[5, 2, 1, 0.5, 0.25, 0.1]",lin,1,1,7,1,23,44,down,0.1,0.5499999999999999,85.16140916699078,85.16396333300509,85.16396333300509,85.65861637506168,85.65861637506168,85.74548170797061,85.74548170797061,85.66227558301762,85.75866233301349,86.61495887499768,1,931715,001,2025-08-11_14h25.18.860,tilt_staircase,2024.2.4,None,2025-08-11 14h25.24.841057 -0700,
86.62581370805856,,high_start,50,20,30,-30,"[5, 2, 1, 0.5, 0.25, 0.1]",lin,1,1,7,0,23,45,down,0.1,0.20000000000000004,86.61511574999895,86.62581370805856,86.62581370805856,87.11293404200114,87.11293404200114,87.20934870804194,87.20934870804194,87.11293404200114,87.21288879204076,88.29592479206622,0,931715,001,2025-08-11_14h25.18.860,tilt_staircase,2024.2.4,None,2025-08-11 14h25.24.841057 -0700,
88.29866325005423,,low_start,50,-20,30,-30,"[5, 2, 1, 0.5, 0.25, 0.1]",lin,1,1,7,1,24,46,down,0.1,0.44999999999999996,88.29610033298377,88.29866325005423,88.29866325005423,88.79338050005026,88.79338050005026,88.88004508300219,88.88004508300219,88.7966735829832,88.89340974995866,90.56372895801906,0,931715,001,2025-08-11_14h25.18.860,tilt_staircase,2024.2.4,None,2025-08-11 14h25.24.841057 -0700,
90.56654745806009,,high_start,50,20,30,-30,"[5, 2, 1, 0.5, 0.25, 0.1]",lin,1,1,7,0,24,47,up,0.1,0.30000000000000004,90.56389079196379,90.56654745806009,90.56654745806009,91.06108200002927,91.06108200002927,91.14773099997547,91.14773099997547,91.06463658297434,91.16114012501203,91.74735770805273,0,931715,001,2025-08-11_14h25.18.860,tilt_staircase,2024.2.4,None,2025-08-11 14h25.24.841057 -0700,
91.75004687497858,,high_start,50,20,30,-30,"[5, 2, 1, 0.5, 0.25, 0.1]",lin,1,1,7,0,25,48,up,0.1,0.4,91.7475206250092,91.75004687497858,91.75004687497858,92.24494095798582,92.24494095798582,92.33159337495454,92.33159337495454,92.24803354195319,92.34487995796371,92.81453416706063,0,931715,001,2025-08-11_14h25.18.860,tilt_staircase,2024.2.4,None,2025-08-11 14h25.24.841057 -0700,
92.81718995806295,,low_start,50,-20,30,-30,"[5, 2, 1, 0.5, 0.25, 0.1]",lin,1,1,7,1,25,49,up,0.1,0.5499999999999999,92.81468741700519,92.81718995806295,92.81718995806295,93.31207991705742,93.31207991705742,93.39855416701175,93.39855416701175,93.31516895804089,93.41209958295804,93.81807741697412,0,931715,001,2025-08-11_14h25.18.860,tilt_staircase,2024.2.4,None,2025-08-11 14h25.24.841057 -0700,
93.82900316698942,,high_start,50,20,30,-30,"[5, 2, 1, 0.5, 0.25, 0.1]",lin,1,1,7,0,26,50,up,0.1,0.5,93.81822770799045,93.82900316698942,93.82900316698942,94.31573429203127,94.31573429203127,94.41258516698144,94.41258516698144,94.31573429203127,94.41608091699891,94.89886449999176,0,931715,001,2025-08-11_14h25.18.860,tilt_staircase,2024.2.4,None,2025-08-11 14h25.24.841057 -0700,
94.90159620798659,,low_start,50,-20,30,-30,"[5, 2, 1, 0.5, 0.25, 0.1]",lin,1,1,7,1,26,51,up,0.1,0.6499999999999999,94.89901883306447,94.90159620798659,94.90159620798659,95.39635987498332,95.39635987498332,95.48289154202212,95.48289154202212,95.39953237504233,95.49639929202385,96.04933929198887,1,931715,001,2025-08-11_14h25.18.860,tilt_staircase,2024.2.4,None,2025-08-11 14h25.24.841057 -0700,
96.0520112500526,,high_start,50,20,30,-30,"[5, 2, 1, 0.5, 0.25, 0.1]",lin,1,1,7,0,27,52,up,0.1,0.6,96.04951454198454,96.0520112500526,96.0520112500526,96.54686691705137,96.54686691705137,96.63379224995151,96.63379224995151,96.55023775005247,96.64692941703834,97.10305000003427,0,931715,001,2025-08-11_14h25.18.860,tilt_staircase,2024.2.4,None,2025-08-11 14h25.24.841057 -0700,
97.11382337496616,,low_start,50,-20,30,-30,"[5, 2, 1, 0.5, 0.25, 0.1]",lin,1,1,7,1,27,53,down,0.1,0.5499999999999999,97.10318895801902,97.11382337496616,97.11382337496616,,,,,,,97.21624545799568,1,931715,001,2025-08-11_14h25.18.860,tilt_staircase,2024.2.4,None,2025-08-11 14h25.24.841057 -0700,
97.2186312499689,,high_start,50,20,30,-30,"[5, 2, 1, 0.5, 0.25, 0.1]",lin,1,1,7,0,28,54,up,0.1,0.7,97.21638204203919,97.2186312499689,97.2186312499689,,,,,,,97.34974279196467,0,931715,001,2025-08-11_14h25.18.860,tilt_staircase,2024.2.4,None,2025-08-11 14h25.24.841057 -0700,
97.3522234170232,,low_start,50,-20,30,-30,"[5, 2, 1, 0.5, 0.25, 0.1]",lin,1,1,7,1,28,55,down,0.1,0.44999999999999996,97.34989033301827,97.3522234170232,97.3522234170232,,,,,,,97.43349812505767,1,931715,001,2025-08-11_14h25.18.860,tilt_staircase,2024.2.4,None,2025-08-11 14h25.24.841057 -0700,
97.43595512502361,,high_start,50,20,30,-30,"[5, 2, 1, 0.5, 0.25, 0.1]",lin,1,1,7,0,29,56,up,0.1,0.7999999999999999,97.43364266701974,97.43595512502361,97.43595512502361,,,,,,,97.58332075004,0,931715,001,2025-08-11_14h25.18.860,tilt_staircase,2024.2.4,None,2025-08-11 14h25.24.841057 -0700,
97.58577795804013,,low_start,50,-20,30,-30,"[5, 2, 1, 0.5, 0.25, 0.1]",lin,1,1,7,1,29,57,down,0.1,0.35,97.58347545797005,97.58577795804013,97.58577795804013,98.08095437497832,98.08095437497832,98.16724908305332,98.16724908305332,98.08428366703447,98.18091712496243,98.7005319170421,0,931715,001,2025-08-11_14h25.18.860,tilt_staircase,2024.2.4,None,2025-08-11 14h25.24.841057 -0700,
98.70314616698306,,high_start,50,20,30,-30,"[5, 2, 1, 0.5, 0.25, 0.1]",lin,1,1,7,0,30,58,up,0.1,0.8999999999999999,98.70069004199468,98.70314616698306,98.70314616698306,99.1980924999807,99.1980924999807,99.28439504199196,99.28439504199196,99.20130604202859,99.29814245796297,99.76742758299224,0,931715,001,2025-08-11_14h25.18.860,tilt_staircase,2024.2.4,None,2025-08-11 14h25.24.841057 -0700,
99.76982345804572,,low_start,50,-20,30,-30,"[5, 2, 1, 0.5, 0.25, 0.1]",lin,1,1,7,1,30,59,up,0.1,0.44999999999999996,99.76756295806263,99.76982345804572,99.76982345804572,100.26518654206302,100.26518654206302,100.35201479203533,100.35201479203533,100.2679604999721,100.3653932500165,101.05192208301742,0,931715,001,2025-08-11_14h25.18.860,tilt_staircase,2024.2.4,None,2025-08-11 14h25.24.841057 -0700,
101.05470616696402,,high_start,50,20,30,-30,"[5, 2, 1, 0.5, 0.25, 0.1]",lin,1,1,7,0,31,60,up,0.1,0.9999999999999999,101.05208541697357,101.05470616696402,101.05470616696402,101.54919579206035,101.54919579206035,101.63581291702576,101.63581291702576,101.55279766698368,101.6491603750037,102.45220062497538,0,931715,001,2025-08-11_14h25.18.860,tilt_staircase,2024.2.4,None,2025-08-11 14h25.24.841057 -0700,
102.45483437506482,,low_start,50,-20,30,-30,"[5, 2, 1, 0.5, 0.25, 0.1]",lin,1,1,7,1,31,61,up,0.1,0.5499999999999999,102.45234758302104,102.45483437506482,102.45483437506482,102.94975954201072,102.94975954201072,103.03633854200598,103.03633854200598,102.95417929196265,103.04981854197104,103.65268441697117,1,931715,001,2025-08-11_14h25.18.860,tilt_staircase,2024.2.4,None,2025-08-11 14h25.24.841057 -0700,
103.65530483296607,,high_start,50,20,30,-30,"[5, 2, 1, 0.5, 0.25, 0.1]",lin,1,1,7,0,32,62,up,0.1,1.0999999999999999,103.65284383296967,103.65530483296607,103.65530483296607,104.15030362503603,104.15030362503603,104.23816716705915,104.23816716705915,104.15540991700254,104.25037608295679,104.62002762500197,0,931715,001,2025-08-11_14h25.18.860,tilt_staircase,2024.2.4,None,2025-08-11 14h25.24.841057 -0700,
104.6227414580062,,low_start,50,-20,30,-30,"[5, 2, 1, 0.5, 0.25, 0.1]",lin,1,1,7,1,32,63,down,0.1,0.44999999999999996,104.62018466705922,104.6227414580062,104.6227414580062,105.117422832991,105.117422832991,105.20376437506638,105.20376437506638,105.12099379196297,105.21745333296712,105.42021083296277,1,931715,001,2025-08-11_14h25.18.860,tilt_staircase,2024.2.4,None,2025-08-11 14h25.24.841057 -0700,
105.42274279205594,,high_start,50,20,30,-30,"[5, 2, 1, 0.5, 0.25, 0.1]",lin,1,1,7,0,33,64,up,0.1,1.2,105.4203647080576,105.42274279205594,105.42274279205594,105.9344841670245,105.9344841670245,106.02137299999595,106.02137299999595,105.9344841670245,106.01784095796756,106.23733637505211,0,931715,001,2025-08-11_14h25.18.860,tilt_staircase,2024.2.4,None,2025-08-11 14h25.24.841057 -0700,
106.23990883305669,,low_start,50,-20,30,-30,"[5, 2, 1, 0.5, 0.25, 0.1]",lin,1,1,7,1,33,65,down,0.1,0.35,106.237486833008,106.23990883305669,106.23990883305669,106.73478212498594,106.73478212498594,106.82140716700815,106.82140716700815,106.73825916706119,106.83817579201423,106.97389016696252,1,931715,001,2025-08-11_14h25.18.860,tilt_staircase,2024.2.4,None,2025-08-11 14h25.24.841057 -0700,
106.98496637505013,,high_start,50,20,30,-30,"[5, 2, 1, 0.5, 0.25, 0.1]",lin,1,1,7,0,34,66,up,0.1,1.3,106.97404595802072,106.98496637505013,106.98496637505013,107.46843937505037,107.46843937505037,107.55509825004265,107.55509825004265,107.47161008301191,107.57154787506443,107.72446912503801,0,931715,001,2025-08-11_14h25.18.860,tilt_staircase,2024.2.4,None,2025-08-11 14h25.24.841057 -0700,
107.73529404203873,,low_start,50,-20,30,-30,"[5, 2, 1, 0.5, 0.25, 0.1]",lin,1,1,7,1,34,67,down,0.1,0.24999999999999997,107.72461866703816,107.73529404203873,107.73529404203873,108.22272724995855,108.22272724995855,108.30903500004206,108.30903500004206,108.22272724995855,108.3188253750559,108.48849858297035,1,931715,001,2025-08-11_14h25.18.860,tilt_staircase,2024.2.4,None,2025-08-11 14h25.24.841057 -0700,
108.4911545830546,,high_start,50,20,30,-30,"[5, 2, 1, 0.5, 0.25, 0.1]",lin,1,1,7,0,35,68,up,0.1,1.4000000000000001,108.4886498330161,108.4911545830546,108.4911545830546,108.98584412503988,108.98584412503988,109.07262700004503,109.07262700004503,108.98938116698992,109.08586474996991,109.22185562504455,0,931715,001,2025-08-11_14h25.18.860,tilt_staircase,2024.2.4,None,2025-08-11 14h25.24.841057 -0700,
109.22445716697257,,low_start,50,-20,30,-30,"[5, 2, 1, 0.5, 0.25, 0.1]",lin,1,1,7,1,35,69,down,0.1,0.14999999999999997,109.22200349997729,109.22445716697257,109.22445716697257,109.71953683299944,109.71953683299944,109.81956062500831,109.81956062500831,109.72284991701599,109.81956062500831,109.95837670797482,1,931715,001,2025-08-11_14h25.18.860,tilt_staircase,2024.2.4,None,2025-08-11 14h25.24.841057 -0700,
109.9696643750649,,low_start,50,-20,30,-30,"[5, 2, 1, 0.5, 0.25, 0.1]",lin,1,1,7,1,36,70,down,0.1,0.04999999999999996,109.95854208304081,109.9696643750649,109.9696643750649,110.45695987495128,110.45695987495128,110.55322408303618,110.55322408303618,110.45695987495128,110.55655654205475,110.725527166971,0,931715,001,2025-08-11_14h25.18.860,tilt_staircase,2024.2.4,None,2025-08-11 14h25.24.841057 -0700,
110.73665624996647,,high_start,50,20,30,-30,"[5, 2, 1, 0.5, 0.25, 0.1]",lin,1,1,7,0,36,71,up,0.1,1.5000000000000002,110.72567670803983,110.73665624996647,110.73665624996647,111.22377074998803,111.22377074998803,111.32019995804876,111.32019995804876,111.22377074998803,111.3234646669589,111.52296512504108,1,931715,001,2025-08-11_14h25.18.860,tilt_staircase,2024.2.4,None,2025-08-11 14h25.24.841057 -0700,
111.52558562497143,,high_start,50,20,30,-30,"[5, 2, 1, 0.5, 0.25, 0.1]",lin,1,1,7,0,37,72,down,0.1,1.4000000000000001,111.52311845798977,111.52558562497143,111.52558562497143,112.02054337505251,112.02054337505251,112.10726016701665,112.10726016701665,112.0242341250414,112.12055891705677,112.3565146670444,0,931715,001,2025-08-11_14h25.18.860,tilt_staircase,2024.2.4,None,2025-08-11 14h25.24.841057 -0700,
112.35901508305687,,low_start,50,-20,30,-30,"[5, 2, 1, 0.5, 0.25, 0.1]",lin,1,1,7,1,37,73,up,0.1,0.14999999999999997,112.35665445798077,112.35901508305687,112.35901508305687,112.85425120801665,112.85425120801665,112.9406695420621,112.9406695420621,112.85751704196446,112.95427562505938,113.12362049997319,1,931715,001,2025-08-11_14h25.18.860,tilt_staircase,2024.2.4,None,2025-08-11 14h25.24.841057 -0700,
113.12622258299962,,low_start,50,-20,30,-30,"[5, 2, 1, 0.5, 0.25, 0.1]",lin,1,1,7,1,38,74,down,0.1,0.04999999999999996,113.12377520801965,113.12622258299962,113.12622258299962,113.6213034579996,113.6213034579996,113.70787462498993,113.70787462498993,113.62457112502307,113.72130541701335,113.89069716702215,0,931715,001,2025-08-11_14h25.18.860,tilt_staircase,2024.2.4,None,2025-08-11 14h25.24.841057 -0700,
113.89329625002574,,high_start,50,20,30,-30,"[5, 2, 1, 0.5, 0.25, 0.1]",lin,1,1,7,0,38,75,up,0.1,1.5000000000000002,113.89084300003015,113.89329625002574,113.89329625002574,114.38822641700972,114.38822641700972,114.47472520801239,114.47472520801239,114.39170449995436,114.48834862501826,114.62459654198028,1,931715,001,2025-08-11_14h25.18.860,tilt_staircase,2024.2.4,None,2025-08-11 14h25.24.841057 -0700,
114.6272230000468,,low_start,50,-20,30,-30,"[5, 2, 1, 0.5, 0.25, 0.1]",lin,1,1,7,1,39,76,up,0.1,0.14999999999999997,114.62476583302487,114.6272230000468,114.6272230000468,115.12197645800188,115.12197645800188,115.20851187501103,115.20851187501103,115.12527075002436,115.22196683299262,115.36115395801608,0,931715,001,2025-08-11_14h25.18.860,tilt_staircase,2024.2.4,None,2025-08-11 14h25.24.841057 -0700,
115.3720492500579,,high_start,50,20,30,-30,"[5, 2, 1, 0.5, 0.25, 0.1]",lin,1,1,7,0,39,77,down,0.1,1.4000000000000001,115.36130354204215,115.3720492500579,115.3720492500579,115.85921016696375,115.85921016696375,115.95966599998064,115.95966599998064,115.85921016696375,115.9723404579563,,,,,,,,,,
