center,surround,correct,thisN,thisTrialN,thisRepN,key_resp_3.keys,key_resp_3.corr,key_resp_3.rt,key_resp_3.duration,opacity,key_resp_4.keys,key_resp_4.corr,key_resp_4.rt,key_resp_4.duration,practice_no_time.thisRepN,practice_no_time.thisTrialN,practice_no_time.thisN,practice_no_time.thisIndex,practice_timed.thisRepN,practice_timed.thisTrialN,practice_timed.thisN,practice_timed.thisIndex,thisRow.t,notes,instr.started,text_5.started,key_resp_2.started,instr.stopped,key_resp_2.keys,key_resp_2.rt,key_resp_2.duration,instr2.started,text_6.started,key_resp_6.started,instr2.stopped,key_resp_6.keys,key_resp_6.rt,key_resp_6.duration,practice_trial.started,key_resp_3.started,text_9.started,surround_practice.started,center_practice.started,text_9.stopped,surround_practice.stopped,center_practice.stopped,text_11.started,practice_trial.stopped,practice_no_time.key_resp_3.keys,practice_no_time.key_resp_3.corr,practice_no_time.key_resp_3.rt,practice_no_time.key_resp_3.duration,practice_feedback.started,text_7.started,practice_feedback.stopped,text_7.stopped,instr3.started,text_8.started,key_resp_5.started,instr3.stopped,key_resp_5.keys,key_resp_5.rt,key_resp_5.duration,practice_trial_timed.started,key_resp_4.started,text_10.started,surround_practice_2.started,center_practice_2.started,text_10.stopped,surround_practice_2.stopped,center_practice_2.stopped,text_12.started,practice_trial_timed.stopped,practice_timed.key_resp_4.keys,practice_timed.key_resp_4.corr,practice_timed.key_resp_4.rt,practice_timed.key_resp_4.duration,start_instr.started,text_13.started,key_resp_8.started,start_instr.stopped,key_resp_8.keys,key_resp_8.rt,key_resp_8.duration,trials.label,trials.nReps,trials.startVal,trials.maxVal,trials.minVal,trials.stepSizes,trials.stepType,trials.nUp,trials.nDown,trials.nReversals,trials.thisIndex,trials.thisRepN,trials.thisN,trials.direction,trials.stepSize,trials.intensity,center_angle,surround_angle,trial.started,resp.started,text_2.started,surround_grating.started,center_grating.started,text_3.started,surround_grating.stopped,center_grating.stopped,text_2.stopped,trial.stopped,trials.response,end.started,text_4.started,key_resp.started,end.stopped,key_resp.keys,key_resp.rt,key_resp.duration,participant,session,date,expName,psychopyVersion,frameRate,expStart,
,,,,,,,,,,,,,,,,,,,,,,,,,0.008376916986890137,0.014890875085256994,0.014890875085256994,17.38544266705867,space,17.318045416963287,None,,,,,,,,,,,,,,,,,,,,,,,,,,,,,,,,,,,,,,,,,,,,,,,,,,,,,,,,,,,,,,,,,,,,,,,,,,,,,,,,,,,,,,,,,,ben,001,2025-08-14_14h57.00.346,tilt_staircase,2024.2.4,None,2025-08-14 14h57.08.782654 -0700,
,,,,,,,,,,,,,,,,,,,,,,,,,,,,,,,,17.38552462507505,17.40167862502858,17.40167862502858,21.410821875091642,space,4.0046952499542385,None,,,,,,,,,,,,,,,,,,,,,,,,,,,,,,,,,,,,,,,,,,,,,,,,,,,,,,,,,,,,,,,,,,,,,,,,,,,,,,,,,,,ben,001,2025-08-14_14h57.00.346,tilt_staircase,2024.2.4,None,2025-08-14 14h57.08.782654 -0700,
30,0,right,0,0,0,right,1,8.283416791935451,None,,,,,,0,0,0,0,,,,,21.444204917061143,,,,,,,,,,,,,,,,21.42628583405167,21.444204917061143,21.444204917061143,21.915078834048472,21.915078834048472,21.942058208980598,22.90740116708912,22.90740116708912,22.90740116708912,29.731739375041798,right,1,8.283416791935451,None,29.736521292012185,29.79402041702997,31.24228266708087,,,,,,,,,,,,,,,,,,,,,,,,,,,,,,,,,,,,,,,,,,,,,,,,,,,,,,,,,,,,,,,,,,ben,001,2025-08-14_14h57.00.346,tilt_staircase,2024.2.4,None,2025-08-14 14h57.08.782654 -0700,
-30,0,left,1,1,0,left,1,3.7302324579795823,None,,,,,,0,1,1,1,,,,,31.248655500006862,,,,,,,,,,,,,,,,31.242771374993026,31.248655500006862,31.248655500006862,31.72546012501698,31.72546012501698,31.74228008405771,32.71360733406618,32.71360733406618,32.73158104205504,34.98330258403439,left,1,3.7302324579795823,None,34.98344566707965,34.99162104201969,36.47534633404575,36.48040554206818,,,,,,,,,,,,,,,,,,,,,,,,,,,,,,,,,,,,,,,,,,,,,,,,,,,,,,,,,,,,,,,,,ben,001,2025-08-14_14h57.00.346,tilt_staircase,2024.2.4,None,2025-08-14 14h57.08.782654 -0700,
30,60,right,2,2,0,right,1,3.603118292056024,None,,,,,,0,2,2,2,,,,,36.48040554206818,,,,,,,,,,,,,,,,36.47587212501094,36.48040554206818,36.48040554206818,36.98299929208588,36.98299929208588,36.97552545904182,37.9815879589878,37.9815879589878,37.9815879589878,40.09442700003274,right,1,3.603118292056024,None,40.094667667057365,40.10277408408001,41.59302012505941,41.59998016699683,,,,,,,,,,,,,,,,,,,,,,,,,,,,,,,,,,,,,,,,,,,,,,,,,,,,,,,,,,,,,,,,,ben,001,2025-08-14_14h57.00.346,tilt_staircase,2024.2.4,None,2025-08-14 14h57.08.782654 -0700,
-30,-60,left,3,3,0,left,1,1.0097324999514967,None,,,,,,0,3,3,3,,,,,41.59998016699683,,,,,,,,,,,,,,,,41.5934788340237,41.59998016699683,41.59998016699683,42.09080220898613,42.09080220898613,42.09561741701327,,,,42.62132520903833,left,1,1.0097324999514967,None,42.621428042068146,42.627458209055476,44.1153823339846,44.12468529201578,,,,,,,,,,,,,,,,,,,,,,,,,,,,,,,,,,,,,,,,,,,,,,,,,,,,,,,,,,,,,,,,,ben,001,2025-08-14_14h57.00.346,tilt_staircase,2024.2.4,None,2025-08-14 14h57.08.782654 -0700,
,,,,,,,,,,,,,,,,,,,,,,,,,,,,,,,,,,,,,,,,,,,,,,,,,,,,,,,,,44.11555408407003,44.12468529201578,44.12468529201578,50.780328584020026,space,6.6516425830777735,None,,,,,,,,,,,,,,,,,,,,,,,,,,,,,,,,,,,,,,,,,,,,,,,,,,,,,,,,,,ben,001,2025-08-14_14h57.00.346,tilt_staircase,2024.2.4,None,2025-08-14 14h57.08.782654 -0700,
-30,-60,left,0,0,0,,,,,100,left,1,1.1128446669317782,None,,,,,0,0,0,0,50.79745570907835,,,,,,,,,,,,,,,,,,,,,,,,,,,,,,51.91694650007412,51.92453804204706,53.40967270906549,53.415954792057164,,,,,,,,50.78950900002383,50.79745570907835,50.79745570907835,51.2744174170075,51.2744174170075,51.292153750080615,51.34608858404681,51.34608858404681,51.35811887506861,51.91678333398886,left,1,1.1128446669317782,None,,,,,,,,,,,,,,,,,,,,,,,,,,,,,,,,,,,,,,,,,,,,ben,001,2025-08-14_14h57.00.346,tilt_staircase,2024.2.4,None,2025-08-14 14h57.08.782654 -0700,
-30,0,left,1,1,0,,,,,100,left,1,1.0039465830195695,None,,,,,0,1,1,1,53.415954792057164,,,,,,,,,,,,,,,,,,,,,,,,,,,,,,54.42781779204961,54.43539162504021,55.92626266705338,55.93240070901811,,,,,,,,53.41030850005336,53.415954792057164,53.415954792057164,53.9168490000302,53.9168490000302,53.9168490000302,53.99233241705224,53.99233241705224,53.99233241705224,54.427629959071055,left,1,1.0039465830195695,None,,,,,,,,,,,,,,,,,,,,,,,,,,,,,,,,,,,,,,,,,,,,ben,001,2025-08-14_14h57.00.346,tilt_staircase,2024.2.4,None,2025-08-14 14h57.08.782654 -0700,
30,60,right,2,2,0,,,,,100,right,1,0.9213794170645997,None,,,,,0,2,2,2,55.93240070901811,,,,,,,,,,,,,,,,,,,,,,,,,,,,,,56.86103550007101,56.86841979203746,58.35962391702924,58.365503334091045,,,,,,,,55.92680300003849,55.93240070901811,55.93240070901811,56.42392333399039,56.42392333399039,56.42868241702672,56.49841095902957,56.49841095902957,56.49841095902957,56.860903250053525,right,1,0.9213794170645997,None,,,,,,,,,,,,,,,,,,,,,,,,,,,,,,,,,,,,,,,,,,,,ben,001,2025-08-14_14h57.00.346,tilt_staircase,2024.2.4,None,2025-08-14 14h57.08.782654 -0700,
30,0,right,3,3,0,,,,,100,right,1,0.9393732500029728,None,,,,,0,3,3,3,58.365503334091045,,,,,,,,,,,,,,,,,,,,,,,,,,,,,,59.31033816700801,59.31743150006514,60.80969487503171,60.81601083406713,,,,,,,,58.36012558406219,58.365503334091045,58.365503334091045,58.857928375015035,58.857928375015035,58.857928375015035,58.93150012509432,58.93150012509432,58.93150012509432,59.31022874999326,right,1,0.9393732500029728,None,,,,,,,,,,,,,,,,,,,,,,,,,,,,,,,,,,,,,,,,,,,,ben,001,2025-08-14_14h57.00.346,tilt_staircase,2024.2.4,None,2025-08-14 14h57.08.782654 -0700,
-30,69,left,4,4,0,,,,,0,left,1,0.9814930830616504,None,,,,,0,4,4,4,60.81601083406713,,,,,,,,,,,,,,,,,,,,,,,,,,,,,,61.79959779209457,61.807326667010784,63.2926460839808,63.29846787499264,,,,,,,,60.81030270899646,60.81601083406713,60.81601083406713,61.307795500033535,61.307795500033535,61.31266566703562,61.38136958400719,61.38136958400719,61.38136958400719,61.799484250019304,left,1,0.9814930830616504,None,,,,,,,,,,,,,,,,,,,,,,,,,,,,,,,,,,,,,,,,,,,,ben,001,2025-08-14_14h57.00.346,tilt_staircase,2024.2.4,None,2025-08-14 14h57.08.782654 -0700,
30,69,right,5,5,0,,,,,0,right,1,0.8656449589179829,None,,,,,0,5,5,5,63.29846787499264,,,,,,,,,,,,,,,,,,,,,,,,,,,,,,64.1666881670244,64.17431108409073,65.65934183401987,65.66766233404633,,,,,,,,63.29316258407198,63.29846787499264,63.29846787499264,63.8000452920096,63.8000452920096,63.79220433405135,63.875370000023395,63.875370000023395,63.875370000023395,64.16657433402725,right,1,0.8656449589179829,None,,,,,,,,,,,,,,,,,,,,,,,,,,,,,,,,,,,,,,,,,,,,ben,001,2025-08-14_14h57.00.346,tilt_staircase,2024.2.4,None,2025-08-14 14h57.08.782654 -0700,
,,,,,,,,,,,,,,,,,,,,,,,,,,,,,,,,,,,,,,,,,,,,,,,,,,,,,,,,,,,,,,,,,,,,,,,,,,,,,,65.65954812499695,65.66766233404633,65.66766233404633,67.99939591705333,space,2.3288354999385774,None,,,,,,,,,,,,,,,,,,,,,,,,,,,,,,,,,,,,,ben,001,2025-08-14_14h57.00.346,tilt_staircase,2024.2.4,None,2025-08-14 14h57.08.782654 -0700,
,,,,,,,,,,,,,,,,,,,,,,,68.12457908398937,,,,,,,,,,,,,,,,,,,,,,,,,,,,,,,,,,,,,,,,,,,,,,,,,,,,,,,,,,,,,,negc_negs,30,-15,15,-15,"[5, 2, 1, 0.5, 0.25, 0.1]",lin,1,1,7,0,1,0,start,5,-15,-15,-30,68.1185204590438,68.12457908398937,68.12457908398937,68.5046764590079,68.5046764590079,68.57549416704569,68.58017958397977,68.58017958397977,68.61444558401126,69.04983987507876,0,,,,,,,,ben,001,2025-08-14_14h57.00.346,tilt_staircase,2024.2.4,None,2025-08-14 14h57.08.782654 -0700,
,,,,,,,,,,,,,,,,,,,,,,,69.05796166707296,,,,,,,,,,,,,,,,,,,,,,,,,,,,,,,,,,,,,,,,,,,,,,,,,,,,,,,,,,,,,,posc_noss,30,15,15,-15,"[5, 2, 1, 0.5, 0.25, 0.1]",lin,1,1,7,5,1,1,start,5,15,15,,69.05038916703779,69.05796166707296,69.05796166707296,69.54981937503908,69.54981937503908,69.62542158400174,69.62542158400174,69.62542158400174,69.54981937503908,70.016321000061,1,,,,,,,,ben,001,2025-08-14_14h57.00.346,tilt_staircase,2024.2.4,None,2025-08-14 14h57.08.782654 -0700,
,,,,,,,,,,,,,,,,,,,,,,,70.02385045902338,,,,,,,,,,,,,,,,,,,,,,,,,,,,,,,,,,,,,,,,,,,,,,,,,,,,,,,,,,,,,,negc_poss,30,-15,15,-15,"[5, 2, 1, 0.5, 0.25, 0.1]",lin,1,1,7,2,1,2,start,5,-15,-15,30,70.01675404200796,70.02385045902338,70.02385045902338,70.51436479203403,70.51436479203403,70.59221416700166,70.59221416700166,70.59221416700166,70.51436479203403,70.9336669590557,0,,,,,,,,ben,001,2025-08-14_14h57.00.346,tilt_staircase,2024.2.4,None,2025-08-14 14h57.08.782654 -0700,
,,,,,,,,,,,,,,,,,,,,,,,70.94132275006268,,,,,,,,,,,,,,,,,,,,,,,,,,,,,,,,,,,,,,,,,,,,,,,,,,,,,,,,,,,,,,posc_negs,30,15,15,-15,"[5, 2, 1, 0.5, 0.25, 0.1]",lin,1,1,7,1,1,3,start,5,15,15,-30,70.93416362500284,70.94132275006268,70.94132275006268,71.43307224998716,71.43307224998716,71.50875845900737,71.50875845900737,71.50875845900737,71.43307224998716,71.96086991706397,1,,,,,,,,ben,001,2025-08-14_14h57.00.346,tilt_staircase,2024.2.4,None,2025-08-14 14h57.08.782654 -0700,
,,,,,,,,,,,,,,,,,,,,,,,71.96853662503418,,,,,,,,,,,,,,,,,,,,,,,,,,,,,,,,,,,,,,,,,,,,,,,,,,,,,,,,,,,,,,posc_poss,30,15,15,-15,"[5, 2, 1, 0.5, 0.25, 0.1]",lin,1,1,7,3,1,4,start,5,15,15,30,71.96139458403923,71.96853662503418,71.96853662503418,72.45858254202176,72.45858254202176,72.53124387504067,72.53124387504067,72.53124387504067,72.46365645900369,72.93275141704362,1,,,,,,,,ben,001,2025-08-14_14h57.00.346,tilt_staircase,2024.2.4,None,2025-08-14 14h57.08.782654 -0700,
,,,,,,,,,,,,,,,,,,,,,,,72.94071500003338,,,,,,,,,,,,,,,,,,,,,,,,,,,,,,,,,,,,,,,,,,,,,,,,,,,,,,,,,,,,,,negc_noss,30,-15,15,-15,"[5, 2, 1, 0.5, 0.25, 0.1]",lin,1,1,7,4,1,5,start,5,-15,-15,,72.93315566703677,72.94071500003338,72.94071500003338,73.43282570899464,73.43282570899464,73.50834633398335,73.50834633398335,73.50834633398335,73.43282570899464,73.8769177920185,0,,,,,,,,ben,001,2025-08-14_14h57.00.346,tilt_staircase,2024.2.4,None,2025-08-14 14h57.08.782654 -0700,
,,,,,,,,,,,,,,,,,,,,,,,73.88433808402624,,,,,,,,,,,,,,,,,,,,,,,,,,,,,,,,,,,,,,,,,,,,,,,,,,,,,,,,,,,,,,posc_noss,30,15,15,-15,"[5, 2, 1, 0.5, 0.25, 0.1]",lin,1,1,7,5,2,6,down,5,10,10,,73.87741499999538,73.88433808402624,73.88433808402624,74.37457079207525,74.37457079207525,74.44828104204498,74.44828104204498,74.44828104204498,74.37988412508275,74.82655587501358,1,,,,,,,,ben,001,2025-08-14_14h57.00.346,tilt_staircase,2024.2.4,None,2025-08-14 14h57.08.782654 -0700,
,,,,,,,,,,,,,,,,,,,,,,,74.83390741702169,,,,,,,,,,,,,,,,,,,,,,,,,,,,,,,,,,,,,,,,,,,,,,,,,,,,,,,,,,,,,,negc_poss,30,-15,15,-15,"[5, 2, 1, 0.5, 0.25, 0.1]",lin,1,1,7,2,2,7,up,5,-10,-10,30,74.82696645904798,74.83390741702169,74.83390741702169,75.31682308402378,75.31682308402378,75.39824295905419,75.39212829200551,75.39212829200551,75.32399204198737,75.7914929590188,0,,,,,,,,ben,001,2025-08-14_14h57.00.346,tilt_staircase,2024.2.4,None,2025-08-14 14h57.08.782654 -0700,
,,,,,,,,,,,,,,,,,,,,,,,75.79586900002323,,,,,,,,,,,,,,,,,,,,,,,,,,,,,,,,,,,,,,,,,,,,,,,,,,,,,,,,,,,,,,negc_noss,30,-15,15,-15,"[5, 2, 1, 0.5, 0.25, 0.1]",lin,1,1,7,4,2,8,up,5,-10,-10,,75.79189533402678,75.79586900002323,75.79586900002323,76.28160900005605,76.28160900005605,76.3623992500361,76.35752887499984,76.35752887499984,76.29075475002173,76.75011812499724,0,,,,,,,,ben,001,2025-08-14_14h57.00.346,tilt_staircase,2024.2.4,None,2025-08-14 14h57.08.782654 -0700,
,,,,,,,,,,,,,,,,,,,,,,,76.75733754201792,,,,,,,,,,,,,,,,,,,,,,,,,,,,,,,,,,,,,,,,,,,,,,,,,,,,,,,,,,,,,,negc_negs,30,-15,15,-15,"[5, 2, 1, 0.5, 0.25, 0.1]",lin,1,1,7,0,2,9,up,5,-10,-10,-30,76.75033908407204,76.75733754201792,76.75733754201792,77.25051870907191,77.25051870907191,77.32474308402743,77.32474308402743,77.32474308402743,77.25051870907191,77.91550833405927,0,,,,,,,,ben,001,2025-08-14_14h57.00.346,tilt_staircase,2024.2.4,None,2025-08-14 14h57.08.782654 -0700,
,,,,,,,,,,,,,,,,,,,,,,,77.92396825004835,,,,,,,,,,,,,,,,,,,,,,,,,,,,,,,,,,,,,,,,,,,,,,,,,,,,,,,,,,,,,,posc_poss,30,15,15,-15,"[5, 2, 1, 0.5, 0.25, 0.1]",lin,1,1,7,3,2,10,down,5,10,10,30,77.91596250003204,77.92396825004835,77.92396825004835,78.41678075003438,78.41678075003438,78.49219341704156,78.49219341704156,78.49219341704156,78.41678075003438,78.96024133404717,1,,,,,,,,ben,001,2025-08-14_14h57.00.346,tilt_staircase,2024.2.4,None,2025-08-14 14h57.08.782654 -0700,
,,,,,,,,,,,,,,,,,,,,,,,78.96794225007761,,,,,,,,,,,,,,,,,,,,,,,,,,,,,,,,,,,,,,,,,,,,,,,,,,,,,,,,,,,,,,posc_negs,30,15,15,-15,"[5, 2, 1, 0.5, 0.25, 0.1]",lin,1,1,7,1,2,11,down,5,10,10,-30,78.96077950007748,78.96794225007761,78.96794225007761,79.4573811669834,79.4573811669834,79.53135308402125,79.53135308402125,79.53135308402125,79.4635280839866,79.9666108340025,1,,,,,,,,ben,001,2025-08-14_14h57.00.346,tilt_staircase,2024.2.4,None,2025-08-14 14h57.08.782654 -0700,
,,,,,,,,,,,,,,,,,,,,,,,79.9749164590612,,,,,,,,,,,,,,,,,,,,,,,,,,,,,,,,,,,,,,,,,,,,,,,,,,,,,,,,,,,,,,posc_poss,30,15,15,-15,"[5, 2, 1, 0.5, 0.25, 0.1]",lin,1,1,7,3,3,12,down,5,5,5,30,79.9672375000082,79.9749164590612,79.9749164590612,80.46657095907722,80.46657095907722,80.54213120904751,80.54213120904751,80.54213120904751,80.46657095907722,81.0328650000738,1,,,,,,,,ben,001,2025-08-14_14h57.00.346,tilt_staircase,2024.2.4,None,2025-08-14 14h57.08.782654 -0700,
,,,,,,,,,,,,,,,,,,,,,,,81.04053179209586,,,,,,,,,,,,,,,,,,,,,,,,,,,,,,,,,,,,,,,,,,,,,,,,,,,,,,,,,,,,,,posc_negs,30,15,15,-15,"[5, 2, 1, 0.5, 0.25, 0.1]",lin,1,1,7,1,3,13,down,5,5,5,-30,81.0333854170749,81.04053179209586,81.04053179209586,81.532621917082,81.532621917082,81.60900362499524,81.60900362499524,81.60900362499524,81.532621917082,82.07760175003204,1,,,,,,,,ben,001,2025-08-14_14h57.00.346,tilt_staircase,2024.2.4,None,2025-08-14 14h57.08.782654 -0700,
,,,,,,,,,,,,,,,,,,,,,,,82.08607508405112,,,,,,,,,,,,,,,,,,,,,,,,,,,,,,,,,,,,,,,,,,,,,,,,,,,,,,,,,,,,,,negc_poss,30,-15,15,-15,"[5, 2, 1, 0.5, 0.25, 0.1]",lin,1,1,7,2,3,14,up,5,-5,-5,30,82.07849125005305,82.08607508405112,82.08607508405112,82.57401845906861,82.57401845906861,82.64796479209326,82.64796479209326,82.64796479209326,82.57896891701967,83.09412112506106,0,,,,,,,,ben,001,2025-08-14_14h57.00.346,tilt_staircase,2024.2.4,None,2025-08-14 14h57.08.782654 -0700,
,,,,,,,,,,,,,,,,,,,,,,,83.10233170900028,,,,,,,,,,,,,,,,,,,,,,,,,,,,,,,,,,,,,,,,,,,,,,,,,,,,,,,,,,,,,,negc_negs,30,-15,15,-15,"[5, 2, 1, 0.5, 0.25, 0.1]",lin,1,1,7,0,3,15,up,5,-5,-5,-30,83.09484495909419,83.10233170900028,83.10233170900028,83.5907032500254,83.5907032500254,83.66473383398261,83.66473383398261,83.66473383398261,83.59551829204429,84.16641916707158,0,,,,,,,,ben,001,2025-08-14_14h57.00.346,tilt_staircase,2024.2.4,None,2025-08-14 14h57.08.782654 -0700,
,,,,,,,,,,,,,,,,,,,,,,,84.17412804206833,,,,,,,,,,,,,,,,,,,,,,,,,,,,,,,,,,,,,,,,,,,,,,,,,,,,,,,,,,,,,,posc_noss,30,15,15,-15,"[5, 2, 1, 0.5, 0.25, 0.1]",lin,1,1,7,5,3,16,down,5,5,5,,84.1669580420712,84.17412804206833,84.17412804206833,84.66631787503138,84.66631787503138,84.74227033404168,84.74227033404168,84.74227033404168,84.66631787503138,85.14961125003174,1,,,,,,,,ben,001,2025-08-14_14h57.00.346,tilt_staircase,2024.2.4,None,2025-08-14 14h57.08.782654 -0700,
,,,,,,,,,,,,,,,,,,,,,,,85.15744304202963,,,,,,,,,,,,,,,,,,,,,,,,,,,,,,,,,,,,,,,,,,,,,,,,,,,,,,,,,,,,,,negc_noss,30,-15,15,-15,"[5, 2, 1, 0.5, 0.25, 0.1]",lin,1,1,7,4,3,17,up,5,-5,-5,,85.15017737506423,85.15744304202963,85.15744304202963,85.64936825004406,85.64936825004406,85.72550937498454,85.72550937498454,85.72550937498454,85.64936825004406,86.15261450002436,0,,,,,,,,ben,001,2025-08-14_14h57.00.346,tilt_staircase,2024.2.4,None,2025-08-14 14h57.08.782654 -0700,
,,,,,,,,,,,,,,,,,,,,,,,86.15782804205082,,,,,,,,,,,,,,,,,,,,,,,,,,,,,,,,,,,,,,,,,,,,,,,,,,,,,,,,,,,,,,negc_poss,30,-15,15,-15,"[5, 2, 1, 0.5, 0.25, 0.1]",lin,1,1,7,2,4,18,up,5,0,0,30,86.15304083400406,86.15782804205082,86.15782804205082,86.64946712506935,86.64946712506935,86.7246236250503,86.7246236250503,86.7246236250503,86.64946712506935,87.17739833402447,0,,,,,,,,ben,001,2025-08-14_14h57.00.346,tilt_staircase,2024.2.4,None,2025-08-14 14h57.08.782654 -0700,
,,,,,,,,,,,,,,,,,,,,,,,87.18496691703331,,,,,,,,,,,,,,,,,,,,,,,,,,,,,,,,,,,,,,,,,,,,,,,,,,,,,,,,,,,,,,negc_negs,30,-15,15,-15,"[5, 2, 1, 0.5, 0.25, 0.1]",lin,1,1,7,0,4,19,up,5,0,0,-30,87.17800266703125,87.18496691703331,87.18496691703331,87.67401187506039,87.67401187506039,87.74822900001891,87.74822900001891,87.74822900001891,87.67888316698372,88.177024042001,1,,,,,,,,ben,001,2025-08-14_14h57.00.346,tilt_staircase,2024.2.4,None,2025-08-14 14h57.08.782654 -0700,
,,,,,,,,,,,,,,,,,,,,,,,88.18481529201381,,,,,,,,,,,,,,,,,,,,,,,,,,,,,,,,,,,,,,,,,,,,,,,,,,,,,,,,,,,,,,posc_noss,30,15,15,-15,"[5, 2, 1, 0.5, 0.25, 0.1]",lin,1,1,7,5,4,20,down,5,0,0,,88.17760945903137,88.18481529201381,88.18481529201381,88.67424754204694,88.67424754204694,88.74674050009344,88.74674050009344,88.74674050009344,88.67922500008717,91.44967987504788,1,,,,,,,,ben,001,2025-08-14_14h57.00.346,tilt_staircase,2024.2.4,None,2025-08-14 14h57.08.782654 -0700,
,,,,,,,,,,,,,,,,,,,,,,,91.45754566707183,,,,,,,,,,,,,,,,,,,,,,,,,,,,,,,,,,,,,,,,,,,,,,,,,,,,,,,,,,,,,,posc_negs,30,15,15,-15,"[5, 2, 1, 0.5, 0.25, 0.1]",lin,1,1,7,1,4,21,down,5,0,0,-30,91.4502006249968,91.45754566707183,91.45754566707183,91.94983825006057,91.94983825006057,92.02530845906585,92.02530845906585,92.02530845906585,91.94983825006057,92.49954283400439,1,,,,,,,,ben,001,2025-08-14_14h57.00.346,tilt_staircase,2024.2.4,None,2025-08-14 14h57.08.782654 -0700,
,,,,,,,,,,,,,,,,,,,,,,,92.507272417075,,,,,,,,,,,,,,,,,,,,,,,,,,,,,,,,,,,,,,,,,,,,,,,,,,,,,,,,,,,,,,negc_noss,30,-15,15,-15,"[5, 2, 1, 0.5, 0.25, 0.1]",lin,1,1,7,4,4,22,up,5,0,0,,92.50008987507317,92.507272417075,92.507272417075,93.0000437090639,93.0000437090639,93.07529962505214,93.07529962505214,93.07529962505214,93.0000437090639,94.21644333400764,1,,,,,,,,ben,001,2025-08-14_14h57.00.346,tilt_staircase,2024.2.4,None,2025-08-14 14h57.08.782654 -0700,
,,,,,,,,,,,,,,,,,,,,,,,94.22462341701612,,,,,,,,,,,,,,,,,,,,,,,,,,,,,,,,,,,,,,,,,,,,,,,,,,,,,,,,,,,,,,posc_poss,30,15,15,-15,"[5, 2, 1, 0.5, 0.25, 0.1]",lin,1,1,7,3,4,23,down,5,0,0,30,94.21693091699854,94.22462341701612,94.22462341701612,94.71541054209229,94.71541054209229,94.79165616701357,94.79165616701357,94.79165616701357,94.71541054209229,95.34490804199595,0,,,,,,,,ben,001,2025-08-14_14h57.00.346,tilt_staircase,2024.2.4,None,2025-08-14 14h57.08.782654 -0700,
,,,,,,,,,,,,,,,,,,,,,,,95.3525810840074,,,,,,,,,,,,,,,,,,,,,,,,,,,,,,,,,,,,,,,,,,,,,,,,,,,,,,,,,,,,,,negc_poss,30,-15,15,-15,"[5, 2, 1, 0.5, 0.25, 0.1]",lin,1,1,7,2,5,24,up,5,5,5,30,95.3454575840151,95.3525810840074,95.3525810840074,95.84127070906106,95.84127070906106,95.91481987503357,95.91481987503357,95.91481987503357,95.84616816707421,96.54489412507974,1,,,,,,,,ben,001,2025-08-14_14h57.00.346,tilt_staircase,2024.2.4,None,2025-08-14 14h57.08.782654 -0700,
,,,,,,,,,,,,,,,,,,,,,,,96.55152241699398,,,,,,,,,,,,,,,,,,,,,,,,,,,,,,,,,,,,,,,,,,,,,,,,,,,,,,,,,,,,,,posc_noss,30,15,15,-15,"[5, 2, 1, 0.5, 0.25, 0.1]",lin,1,1,7,5,5,25,down,5,-5,-5,,96.5453832920175,96.55152241699398,96.55152241699398,97.04089629207738,97.04089629207738,97.11486904206686,97.11486904206686,97.11486904206686,97.04585916700307,97.49953795899637,0,,,,,,,,ben,001,2025-08-14_14h57.00.346,tilt_staircase,2024.2.4,None,2025-08-14 14h57.08.782654 -0700,
,,,,,,,,,,,,,,,,,,,,,,,97.50733504199889,,,,,,,,,,,,,,,,,,,,,,,,,,,,,,,,,,,,,,,,,,,,,,,,,,,,,,,,,,,,,,negc_noss,30,-15,15,-15,"[5, 2, 1, 0.5, 0.25, 0.1]",lin,1,1,7,4,5,26,down,2,-2,-2,,97.49997766700108,97.50733504199889,97.50733504199889,98.00002516701352,98.00002516701352,98.07533658400644,98.07533658400644,98.07533658400644,98.00002516701352,98.54412020905875,0,,,,,,,,ben,001,2025-08-14_14h57.00.346,tilt_staircase,2024.2.4,None,2025-08-14 14h57.08.782654 -0700,
,,,,,,,,,,,,,,,,,,,,,,,98.55225966707803,,,,,,,,,,,,,,,,,,,,,,,,,,,,,,,,,,,,,,,,,,,,,,,,,,,,,,,,,,,,,,posc_negs,30,15,15,-15,"[5, 2, 1, 0.5, 0.25, 0.1]",lin,1,1,7,1,5,27,down,5,-5,-5,-30,98.54490425006952,98.55225966707803,98.55225966707803,99.04103429208044,99.04103429208044,99.11275237507652,99.11275237507652,99.11275237507652,99.04590675001964,99.59442425007,0,,,,,,,,ben,001,2025-08-14_14h57.00.346,tilt_staircase,2024.2.4,None,2025-08-14 14h57.08.782654 -0700,
,,,,,,,,,,,,,,,,,,,,,,,99.60266216704622,,,,,,,,,,,,,,,,,,,,,,,,,,,,,,,,,,,,,,,,,,,,,,,,,,,,,,,,,,,,,,posc_poss,30,15,15,-15,"[5, 2, 1, 0.5, 0.25, 0.1]",lin,1,1,7,3,5,28,up,2,2,2,30,99.59519695898052,99.60266216704622,99.60266216704622,100.09065025008749,100.09065025008749,100.16475325007923,100.16475325007923,100.16475325007923,100.09538620908279,100.65789145906456,0,,,,,,,,ben,001,2025-08-14_14h57.00.346,tilt_staircase,2024.2.4,None,2025-08-14 14h57.08.782654 -0700,
,,,,,,,,,,,,,,,,,,,,,,,100.66121808404569,,,,,,,,,,,,,,,,,,,,,,,,,,,,,,,,,,,,,,,,,,,,,,,,,,,,,,,,,,,,,,negc_negs,30,-15,15,-15,"[5, 2, 1, 0.5, 0.25, 0.1]",lin,1,1,7,0,5,29,down,2,-2,-2,-30,100.65816908399574,100.66121808404569,100.66121808404569,101.15071891702246,101.15071891702246,101.23128695902415,101.22542608401272,101.22542608401272,101.15726687503047,102.43536104203667,1,,,,,,,,ben,001,2025-08-14_14h57.00.346,tilt_staircase,2024.2.4,None,2025-08-14 14h57.08.782654 -0700,
,,,,,,,,,,,,,,,,,,,,,,,102.44037679198664,,,,,,,,,,,,,,,,,,,,,,,,,,,,,,,,,,,,,,,,,,,,,,,,,,,,,,,,,,,,,,posc_poss,30,15,15,-15,"[5, 2, 1, 0.5, 0.25, 0.1]",lin,1,1,7,3,6,30,up,2,4,4,30,102.43578662502114,102.44037679198664,102.44037679198664,102.93285541702062,102.93285541702062,103.0087962920079,103.0087962920079,103.0087962920079,102.93285541702062,103.54920204204973,1,,,,,,,,ben,001,2025-08-14_14h57.00.346,tilt_staircase,2024.2.4,None,2025-08-14 14h57.08.782654 -0700,
,,,,,,,,,,,,,,,,,,,,,,,103.55715491704177,,,,,,,,,,,,,,,,,,,,,,,,,,,,,,,,,,,,,,,,,,,,,,,,,,,,,,,,,,,,,,negc_poss,30,-15,15,-15,"[5, 2, 1, 0.5, 0.25, 0.1]",lin,1,1,7,2,6,31,down,2,3,3,30,103.5496249590069,103.55715491704177,103.55715491704177,104.04787654208485,104.04787654208485,104.12565866706427,104.12565866706427,104.12565866706427,104.04787654208485,104.6274727920536,1,,,,,,,,ben,001,2025-08-14_14h57.00.346,tilt_staircase,2024.2.4,None,2025-08-14 14h57.08.782654 -0700,
,,,,,,,,,,,,,,,,,,,,,,,104.63543262507301,,,,,,,,,,,,,,,,,,,,,,,,,,,,,,,,,,,,,,,,,,,,,,,,,,,,,,,,,,,,,,posc_negs,30,15,15,-15,"[5, 2, 1, 0.5, 0.25, 0.1]",lin,1,1,7,1,6,32,up,2,-3,-3,-30,104.62816541700158,104.63543262507301,104.63543262507301,105.12404012505431,105.12404012505431,105.19493137509562,105.19493137509562,105.19493137509562,105.12895270902663,106.18134979205206,1,,,,,,,,ben,001,2025-08-14_14h57.00.346,tilt_staircase,2024.2.4,None,2025-08-14 14h57.08.782654 -0700,
,,,,,,,,,,,,,,,,,,,,,,,106.1905924170278,,,,,,,,,,,,,,,,,,,,,,,,,,,,,,,,,,,,,,,,,,,,,,,,,,,,,,,,,,,,,,posc_noss,30,15,15,-15,"[5, 2, 1, 0.5, 0.25, 0.1]",lin,1,1,7,5,6,33,up,2,-3,-3,,106.18190483399667,106.1905924170278,106.1905924170278,106.67417345906142,106.67417345906142,106.75873624999076,106.74713849998079,106.74713849998079,106.67935537500307,107.14263508399017,0,,,,,,,,ben,001,2025-08-14_14h57.00.346,tilt_staircase,2024.2.4,None,2025-08-14 14h57.08.782654 -0700,
,,,,,,,,,,,,,,,,,,,,,,,107.15002462500706,,,,,,,,,,,,,,,,,,,,,,,,,,,,,,,,,,,,,,,,,,,,,,,,,,,,,,,,,,,,,,negc_negs,30,-15,15,-15,"[5, 2, 1, 0.5, 0.25, 0.1]",lin,1,1,7,0,6,34,down,2,-4,-4,-30,107.14304091699887,107.15002462500706,107.15002462500706,107.63341641705483,107.63341641705483,107.71455183404032,107.70865849999245,107.70865849999245,107.64075562509242,108.19927375006955,0,,,,,,,,ben,001,2025-08-14_14h57.00.346,tilt_staircase,2024.2.4,None,2025-08-14 14h57.08.782654 -0700,
,,,,,,,,,,,,,,,,,,,,,,,108.2069603750715,,,,,,,,,,,,,,,,,,,,,,,,,,,,,,,,,,,,,,,,,,,,,,,,,,,,,,,,,,,,,,negc_noss,30,-15,15,-15,"[5, 2, 1, 0.5, 0.25, 0.1]",lin,1,1,7,4,6,35,up,1,-1,-1,,108.19981525000185,108.2069603750715,108.2069603750715,108.70017291698605,108.70017291698605,108.77557454199996,108.77557454199996,108.77557454199996,108.70017291698605,109.29330470901914,0,,,,,,,,ben,001,2025-08-14_14h57.00.346,tilt_staircase,2024.2.4,None,2025-08-14 14h57.08.782654 -0700,
,,,,,,,,,,,,,,,,,,,,,,,109.30105370900128,,,,,,,,,,,,,,,,,,,,,,,,,,,,,,,,,,,,,,,,,,,,,,,,,,,,,,,,,,,,,,posc_noss,30,15,15,-15,"[5, 2, 1, 0.5, 0.25, 0.1]",lin,1,1,7,5,7,36,up,2,-1,-1,,109.29374508408364,109.30105370900128,109.30105370900128,109.79103295900859,109.79103295900859,109.86447537504137,109.86447537504137,109.86447537504137,109.79598095908295,110.37775791704189,0,,,,,,,,ben,001,2025-08-14_14h57.00.346,tilt_staircase,2024.2.4,None,2025-08-14 14h57.08.782654 -0700,
,,,,,,,,,,,,,,,,,,,,,,,110.38539387506898,,,,,,,,,,,,,,,,,,,,,,,,,,,,,,,,,,,,,,,,,,,,,,,,,,,,,,,,,,,,,,negc_noss,30,-15,15,-15,"[5, 2, 1, 0.5, 0.25, 0.1]",lin,1,1,7,4,7,37,up,1,0,0,,110.37826591706835,110.38539387506898,110.38539387506898,110.87416287499946,110.87416287499946,110.94827033404727,110.94827033404727,110.94827033404727,110.8790803339798,111.382640041993,0,,,,,,,,ben,001,2025-08-14_14h57.00.346,tilt_staircase,2024.2.4,None,2025-08-14 14h57.08.782654 -0700,
,,,,,,,,,,,,,,,,,,,,,,,111.39071766706184,,,,,,,,,,,,,,,,,,,,,,,,,,,,,,,,,,,,,,,,,,,,,,,,,,,,,,,,,,,,,,posc_negs,30,15,15,-15,"[5, 2, 1, 0.5, 0.25, 0.1]",lin,1,1,7,1,7,38,down,1,-4,-4,-30,111.38308408402372,111.39071766706184,111.39071766706184,111.88285704201553,111.88285704201553,111.95874612499028,111.95874612499028,111.95874612499028,111.88285704201553,112.44986020901706,0,,,,,,,,ben,001,2025-08-14_14h57.00.346,tilt_staircase,2024.2.4,None,2025-08-14 14h57.08.782654 -0700,
,,,,,,,,,,,,,,,,,,,,,,,112.45771066704765,,,,,,,,,,,,,,,,,,,,,,,,,,,,,,,,,,,,,,,,,,,,,,,,,,,,,,,,,,,,,,posc_poss,30,15,15,-15,"[5, 2, 1, 0.5, 0.25, 0.1]",lin,1,1,7,3,7,39,down,1,3,3,30,112.45043083408382,112.45771066704765,112.45771066704765,112.94968070904724,112.94968070904724,113.02532600006089,113.02532600006089,113.02532600006089,112.94968070904724,114.0002077500103,0,,,,,,,,ben,001,2025-08-14_14h57.00.346,tilt_staircase,2024.2.4,None,2025-08-14 14h57.08.782654 -0700,
,,,,,,,,,,,,,,,,,,,,,,,114.00822929199785,,,,,,,,,,,,,,,,,,,,,,,,,,,,,,,,,,,,,,,,,,,,,,,,,,,,,,,,,,,,,,negc_poss,30,-15,15,-15,"[5, 2, 1, 0.5, 0.25, 0.1]",lin,1,1,7,2,7,40,down,2,1,1,30,114.00077841698658,114.00822929199785,114.00822929199785,114.49974250001833,114.49974250001833,114.57547791698016,114.57547791698016,114.57547791698016,114.49974250001833,115.61072020907886,0,,,,,,,,ben,001,2025-08-14_14h57.00.346,tilt_staircase,2024.2.4,None,2025-08-14 14h57.08.782654 -0700,
,,,,,,,,,,,,,,,,,,,,,,,115.61845512501895,,,,,,,,,,,,,,,,,,,,,,,,,,,,,,,,,,,,,,,,,,,,,,,,,,,,,,,,,,,,,,negc_negs,30,-15,15,-15,"[5, 2, 1, 0.5, 0.25, 0.1]",lin,1,1,7,0,7,41,up,1,-3,-3,-30,115.61137920909096,115.61845512501895,115.61845512501895,116.1071681670146,116.1071681670146,116.18103995907586,116.18103995907586,116.18103995907586,116.1121428750921,117.06674812501296,0,,,,,,,,ben,001,2025-08-14_14h57.00.346,tilt_staircase,2024.2.4,None,2025-08-14 14h57.08.782654 -0700,
,,,,,,,,,,,,,,,,,,,,,,,117.07461737503763,,,,,,,,,,,,,,,,,,,,,,,,,,,,,,,,,,,,,,,,,,,,,,,,,,,,,,,,,,,,,,posc_negs,30,15,15,-15,"[5, 2, 1, 0.5, 0.25, 0.1]",lin,1,1,7,1,8,42,up,0.5,-3.5,-3.5,-30,117.06731241708621,117.07461737503763,117.07461737503763,117.56629774998873,117.56629774998873,117.64192666707095,117.64192666707095,117.64192666707095,117.56629774998873,118.1494919169927,0,,,,,,,,ben,001,2025-08-14_14h57.00.346,tilt_staircase,2024.2.4,None,2025-08-14 14h57.08.782654 -0700,
,,,,,,,,,,,,,,,,,,,,,,,118.15736891701818,,,,,,,,,,,,,,,,,,,,,,,,,,,,,,,,,,,,,,,,,,,,,,,,,,,,,,,,,,,,,,negc_poss,30,-15,15,-15,"[5, 2, 1, 0.5, 0.25, 0.1]",lin,1,1,7,2,8,43,up,1,2,2,30,118.14989658398554,118.15736891701818,118.15736891701818,118.64969200000633,118.64969200000633,118.72535483399406,118.72535483399406,118.72535483399406,118.64969200000633,119.31064412498381,0,,,,,,,,ben,001,2025-08-14_14h57.00.346,tilt_staircase,2024.2.4,None,2025-08-14 14h57.08.782654 -0700,
,,,,,,,,,,,,,,,,,,,,,,,119.31849195901304,,,,,,,,,,,,,,,,,,,,,,,,,,,,,,,,,,,,,,,,,,,,,,,,,,,,,,,,,,,,,,posc_poss,30,15,15,-15,"[5, 2, 1, 0.5, 0.25, 0.1]",lin,1,1,7,3,8,44,up,0.5,3.5,3.5,30,119.31137329200283,119.31849195901304,119.31849195901304,119.80774454202037,119.80774454202037,119.88157329207752,119.88157329207752,119.88157329207752,119.81260695902165,120.36060600006022,1,,,,,,,,ben,001,2025-08-14_14h57.00.346,tilt_staircase,2024.2.4,None,2025-08-14 14h57.08.782654 -0700,
,,,,,,,,,,,,,,,,,,,,,,,120.36846670904197,,,,,,,,,,,,,,,,,,,,,,,,,,,,,,,,,,,,,,,,,,,,,,,,,,,,,,,,,,,,,,negc_negs,30,-15,15,-15,"[5, 2, 1, 0.5, 0.25, 0.1]",lin,1,1,7,0,8,45,up,1,-2,-2,-30,120.36124800005928,120.36846670904197,120.36846670904197,120.85760674998164,120.85760674998164,120.93121691700071,120.93121691700071,120.93121691700071,120.86298291699495,121.41071783402003,1,,,,,,,,ben,001,2025-08-14_14h57.00.346,tilt_staircase,2024.2.4,None,2025-08-14 14h57.08.782654 -0700,
,,,,,,,,,,,,,,,,,,,,,,,121.41889149998315,,,,,,,,,,,,,,,,,,,,,,,,,,,,,,,,,,,,,,,,,,,,,,,,,,,,,,,,,,,,,,negc_noss,30,-15,15,-15,"[5, 2, 1, 0.5, 0.25, 0.1]",lin,1,1,7,4,8,46,up,1,1,1,,121.41147845902015,121.41889149998315,121.41889149998315,121.90727120905649,121.90727120905649,121.98124583403114,121.98124583403114,121.98124583403114,121.91217033402063,122.5665191670414,1,,,,,,,,ben,001,2025-08-14_14h57.00.346,tilt_staircase,2024.2.4,None,2025-08-14 14h57.08.782654 -0700,
,,,,,,,,,,,,,,,,,,,,,,,122.57437275000848,,,,,,,,,,,,,,,,,,,,,,,,,,,,,,,,,,,,,,,,,,,,,,,,,,,,,,,,,,,,,,posc_noss,30,15,15,-15,"[5, 2, 1, 0.5, 0.25, 0.1]",lin,1,1,7,5,8,47,up,2,1,1,,122.56696554203518,122.57437275000848,122.57437275000848,123.0663317090366,123.0663317090366,123.14197520900052,123.14197520900052,123.14197520900052,123.0663317090366,123.7114000840811,1,,,,,,,,ben,001,2025-08-14_14h57.00.346,tilt_staircase,2024.2.4,None,2025-08-14 14h57.08.782654 -0700,
,,,,,,,,,,,,,,,,,,,,,,,123.71919891703874,,,,,,,,,,,,,,,,,,,,,,,,,,,,,,,,,,,,,,,,,,,,,,,,,,,,,,,,,,,,,,negc_noss,30,-15,15,-15,"[5, 2, 1, 0.5, 0.25, 0.1]",lin,1,1,7,4,9,48,down,0.5,0.5,0.5,,123.71195979206823,123.71919891703874,123.71919891703874,124.20834141701926,124.20834141701926,124.2808523750864,124.2808523750864,124.2808523750864,124.2139271250926,125.11156937503256,1,,,,,,,,ben,001,2025-08-14_14h57.00.346,tilt_staircase,2024.2.4,None,2025-08-14 14h57.08.782654 -0700,
,,,,,,,,,,,,,,,,,,,,,,,125.11913691705558,,,,,,,,,,,,,,,,,,,,,,,,,,,,,,,,,,,,,,,,,,,,,,,,,,,,,,,,,,,,,,negc_negs,30,-15,15,-15,"[5, 2, 1, 0.5, 0.25, 0.1]",lin,1,1,7,0,9,49,down,0.5,-2.5,-2.5,-30,125.11205287498888,125.11913691705558,125.11913691705558,125.60715295898262,125.60715295898262,125.6814587500412,125.6814587500412,125.6814587500412,125.6121353340568,126.1600945420796,0,,,,,,,,ben,001,2025-08-14_14h57.00.346,tilt_staircase,2024.2.4,None,2025-08-14 14h57.08.782654 -0700,
,,,,,,,,,,,,,,,,,,,,,,,126.16746887506451,,,,,,,,,,,,,,,,,,,,,,,,,,,,,,,,,,,,,,,,,,,,,,,,,,,,,,,,,,,,,,negc_poss,30,-15,15,-15,"[5, 2, 1, 0.5, 0.25, 0.1]",lin,1,1,7,2,9,50,up,1,3,3,30,126.16051345900632,126.16746887506451,126.16746887506451,126.657221917063,126.657221917063,126.730951167061,126.730951167061,126.730951167061,126.66229508398101,127.36056875006761,1,,,,,,,,ben,001,2025-08-14_14h57.00.346,tilt_staircase,2024.2.4,None,2025-08-14 14h57.08.782654 -0700,
,,,,,,,,,,,,,,,,,,,,,,,127.36855416698381,,,,,,,,,,,,,,,,,,,,,,,,,,,,,,,,,,,,,,,,,,,,,,,,,,,,,,,,,,,,,,posc_poss,30,15,15,-15,"[5, 2, 1, 0.5, 0.25, 0.1]",lin,1,1,7,3,9,51,down,0.25,3.25,3.25,30,127.3612980840262,127.36855416698381,127.36855416698381,127.85809150000568,127.85809150000568,127.93128916702699,127.93128916702699,127.93128916702699,127.86478804203216,128.5030409169849,1,,,,,,,,ben,001,2025-08-14_14h57.00.346,tilt_staircase,2024.2.4,None,2025-08-14 14h57.08.782654 -0700,
,,,,,,,,,,,,,,,,,,,,,,,128.5083123340737,,,,,,,,,,,,,,,,,,,,,,,,,,,,,,,,,,,,,,,,,,,,,,,,,,,,,,,,,,,,,,posc_noss,30,15,15,-15,"[5, 2, 1, 0.5, 0.25, 0.1]",lin,1,1,7,5,9,52,down,1,0,0,,128.50349279202055,128.5083123340737,128.5083123340737,128.99961900000926,128.99961900000926,129.08134833408985,129.0752477090573,129.0752477090573,128.99961900000926,129.8993823340861,1,,,,,,,,ben,001,2025-08-14_14h57.00.346,tilt_staircase,2024.2.4,None,2025-08-14 14h57.08.782654 -0700,
,,,,,,,,,,,,,,,,,,,,,,,129.90741620899644,,,,,,,,,,,,,,,,,,,,,,,,,,,,,,,,,,,,,,,,,,,,,,,,,,,,,,,,,,,,,,posc_negs,30,15,15,-15,"[5, 2, 1, 0.5, 0.25, 0.1]",lin,1,1,7,1,9,53,up,0.5,-3.0,-3.0,-30,129.89992858399637,129.90741620899644,129.90741620899644,130.4000149590429,130.4000149590429,130.4753961249953,130.4753961249953,130.4753961249953,130.4000149590429,130.9607074999949,0,,,,,,,,ben,001,2025-08-14_14h57.00.346,tilt_staircase,2024.2.4,None,2025-08-14 14h57.08.782654 -0700,
,,,,,,,,,,,,,,,,,,,,,,,130.96823550004046,,,,,,,,,,,,,,,,,,,,,,,,,,,,,,,,,,,,,,,,,,,,,,,,,,,,,,,,,,,,,,posc_negs,30,15,15,-15,"[5, 2, 1, 0.5, 0.25, 0.1]",lin,1,1,7,1,10,54,up,0.5,-2.5,-2.5,-30,130.96124154201243,130.96823550004046,130.96823550004046,131.45772429206409,131.45772429206409,131.53143358405214,131.53143358405214,131.53143358405214,131.46449429204222,131.97739020898007,0,,,,,,,,ben,001,2025-08-14_14h57.00.346,tilt_staircase,2024.2.4,None,2025-08-14 14h57.08.782654 -0700,
,,,,,,,,,,,,,,,,,,,,,,,131.9849089999916,,,,,,,,,,,,,,,,,,,,,,,,,,,,,,,,,,,,,,,,,,,,,,,,,,,,,,,,,,,,,,negc_negs,30,-15,15,-15,"[5, 2, 1, 0.5, 0.25, 0.1]",lin,1,1,7,0,10,55,up,0.25,-2.25,-2.25,-30,131.9778807500843,131.9849089999916,131.9849089999916,132.47431729198433,132.47431729198433,132.5478977500461,132.5478977500461,132.5478977500461,132.47920879209414,133.16598783398513,0,,,,,,,,ben,001,2025-08-14_14h57.00.346,tilt_staircase,2024.2.4,None,2025-08-14 14h57.08.782654 -0700,
,,,,,,,,,,,,,,,,,,,,,,,133.17399358400144,,,,,,,,,,,,,,,,,,,,,,,,,,,,,,,,,,,,,,,,,,,,,,,,,,,,,,,,,,,,,,posc_poss,30,15,15,-15,"[5, 2, 1, 0.5, 0.25, 0.1]",lin,1,1,7,3,10,56,down,0.25,3.0,3.0,30,133.16640275006648,133.17399358400144,133.17399358400144,133.66625420900527,133.66625420900527,133.74199129198678,133.74199129198678,133.74199129198678,133.66625420900527,134.5970542090945,1,,,,,,,,ben,001,2025-08-14_14h57.00.346,tilt_staircase,2024.2.4,None,2025-08-14 14h57.08.782654 -0700,
,,,,,,,,,,,,,,,,,,,,,,,134.60830125003122,,,,,,,,,,,,,,,,,,,,,,,,,,,,,,,,,,,,,,,,,,,,,,,,,,,,,,,,,,,,,,negc_poss,30,-15,15,-15,"[5, 2, 1, 0.5, 0.25, 0.1]",lin,1,1,7,2,10,57,down,0.5,2.5,2.5,30,134.5974586670054,134.60830125003122,134.60830125003122,135.0985186250182,135.0985186250182,135.17469816701487,135.17469816701487,135.17469816701487,135.0985186250182,135.83369204204064,1,,,,,,,,ben,001,2025-08-14_14h57.00.346,tilt_staircase,2024.2.4,None,2025-08-14 14h57.08.782654 -0700,
,,,,,,,,,,,,,,,,,,,,,,,135.84175170899834,,,,,,,,,,,,,,,,,,,,,,,,,,,,,,,,,,,,,,,,,,,,,,,,,,,,,,,,,,,,,,posc_noss,30,15,15,-15,"[5, 2, 1, 0.5, 0.25, 0.1]",lin,1,1,7,5,10,58,down,1,-1,-1,,135.83423350006342,135.84175170899834,135.84175170899834,136.3309155839961,136.3309155839961,136.4123799590161,136.40736516704783,136.40736516704783,136.3309155839961,136.94399429205805,0,,,,,,,,ben,001,2025-08-14_14h57.00.346,tilt_staircase,2024.2.4,None,2025-08-14 14h57.08.782654 -0700,
,,,,,,,,,,,,,,,,,,,,,,,136.94863395905122,,,,,,,,,,,,,,,,,,,,,,,,,,,,,,,,,,,,,,,,,,,,,,,,,,,,,,,,,,,,,,negc_noss,30,-15,15,-15,"[5, 2, 1, 0.5, 0.25, 0.1]",lin,1,1,7,4,10,59,down,0.5,0.0,0.0,,136.94423204206396,136.94863395905122,136.94863395905122,137.44085850007832,137.44085850007832,137.51479308400303,137.51479308400303,137.51479308400303,137.44676179206,138.26087408408057,0,,,,,,,,ben,001,2025-08-14_14h57.00.346,tilt_staircase,2024.2.4,None,2025-08-14 14h57.08.782654 -0700,
,,,,,,,,,,,,,,,,,,,,,,,138.26935741701163,,,,,,,,,,,,,,,,,,,,,,,,,,,,,,,,,,,,,,,,,,,,,,,,,,,,,,,,,,,,,,posc_noss,30,15,15,-15,"[5, 2, 1, 0.5, 0.25, 0.1]",lin,1,1,7,5,11,60,up,0.5,-0.5,-0.5,,138.26172533398494,138.26935741701163,138.26935741701163,138.7570790000027,138.7570790000027,138.83013691706583,138.83013691706583,138.83013691706583,138.76187849999405,139.3436232090462,1,,,,,,,,ben,001,2025-08-14_14h57.00.346,tilt_staircase,2024.2.4,None,2025-08-14 14h57.08.782654 -0700,
,,,,,,,,,,,,,,,,,,,,,,,139.35157870908733,,,,,,,,,,,,,,,,,,,,,,,,,,,,,,,,,,,,,,,,,,,,,,,,,,,,,,,,,,,,,,posc_poss,30,15,15,-15,"[5, 2, 1, 0.5, 0.25, 0.1]",lin,1,1,7,3,11,61,down,0.25,2.75,2.75,30,139.34409383405,139.35157870908733,139.35157870908733,139.8405919590732,139.8405919590732,139.91435525007546,139.91435525007546,139.91435525007546,139.84557141701225,140.46190641704015,0,,,,,,,,ben,001,2025-08-14_14h57.00.346,tilt_staircase,2024.2.4,None,2025-08-14 14h57.08.782654 -0700,
,,,,,,,,,,,,,,,,,,,,,,,140.46981433406472,,,,,,,,,,,,,,,,,,,,,,,,,,,,,,,,,,,,,,,,,,,,,,,,,,,,,,,,,,,,,,negc_poss,30,-15,15,-15,"[5, 2, 1, 0.5, 0.25, 0.1]",lin,1,1,7,2,11,62,down,0.5,2.0,2.0,30,140.46259679202922,140.46981433406472,140.46981433406472,140.95768812508322,140.95768812508322,141.03126054198947,141.03126054198947,141.03126054198947,140.96259466698393,142.1016274590511,1,,,,,,,,ben,001,2025-08-14_14h57.00.346,tilt_staircase,2024.2.4,None,2025-08-14 14h57.08.782654 -0700,
,,,,,,,,,,,,,,,,,,,,,,,142.1068274170393,,,,,,,,,,,,,,,,,,,,,,,,,,,,,,,,,,,,,,,,,,,,,,,,,,,,,,,,,,,,,,negc_negs,30,-15,15,-15,"[5, 2, 1, 0.5, 0.25, 0.1]",lin,1,1,7,0,11,63,up,0.25,-2.0,-2.0,-30,142.10206195898354,142.1068274170393,142.1068274170393,142.5998727090191,142.5998727090191,142.6753284590086,142.6753284590086,142.6753284590086,142.5998727090191,143.44390004198067,0,,,,,,,,ben,001,2025-08-14_14h57.00.346,tilt_staircase,2024.2.4,None,2025-08-14 14h57.08.782654 -0700,
,,,,,,,,,,,,,,,,,,,,,,,143.4513556250604,,,,,,,,,,,,,,,,,,,,,,,,,,,,,,,,,,,,,,,,,,,,,,,,,,,,,,,,,,,,,,posc_negs,30,15,15,-15,"[5, 2, 1, 0.5, 0.25, 0.1]",lin,1,1,7,1,11,64,up,0.5,-2.0,-2.0,-30,143.44436870899517,143.4513556250604,143.4513556250604,143.9421720840037,143.9421720840037,144.01371929200832,144.01371929200832,144.01371929200832,143.94918858399615,145.4106033750577,1,,,,,,,,ben,001,2025-08-14_14h57.00.346,tilt_staircase,2024.2.4,None,2025-08-14 14h57.08.782654 -0700,
,,,,,,,,,,,,,,,,,,,,,,,145.4186947090784,,,,,,,,,,,,,,,,,,,,,,,,,,,,,,,,,,,,,,,,,,,,,,,,,,,,,,,,,,,,,,negc_noss,30,-15,15,-15,"[5, 2, 1, 0.5, 0.25, 0.1]",lin,1,1,7,4,11,65,up,0.25,0.25,0.25,,145.4111431670608,145.4186947090784,145.4186947090784,145.90722933399957,145.90722933399957,145.98133654205594,145.98133654205594,145.98133654205594,145.91231862502173,146.66054425004404,1,,,,,,,,ben,001,2025-08-14_14h57.00.346,tilt_staircase,2024.2.4,None,2025-08-14 14h57.08.782654 -0700,
,,,,,,,,,,,,,,,,,,,,,,,146.66863287508022,,,,,,,,,,,,,,,,,,,,,,,,,,,,,,,,,,,,,,,,,,,,,,,,,,,,,,,,,,,,,,posc_negs,30,15,15,-15,"[5, 2, 1, 0.5, 0.25, 0.1]",lin,1,1,7,1,12,66,down,0.25,-2.25,-2.25,-30,146.66119341703597,146.66863287508022,146.66863287508022,147.15724679199047,147.15724679199047,147.23170008405577,147.23170008405577,147.23170008405577,147.16213658405468,148.293085750076,0,,,,,,,,ben,001,2025-08-14_14h57.00.346,tilt_staircase,2024.2.4,None,2025-08-14 14h57.08.782654 -0700,
,,,,,,,,,,,,,,,,,,,,,,,148.30086883401964,,,,,,,,,,,,,,,,,,,,,,,,,,,,,,,,,,,,,,,,,,,,,,,,,,,,,,,,,,,,,,posc_noss,30,15,15,-15,"[5, 2, 1, 0.5, 0.25, 0.1]",lin,1,1,7,5,12,67,down,0.25,-0.75,-0.75,,148.29351754207164,148.30086883401964,148.30086883401964,148.7908586669946,148.7908586669946,148.8641141250264,148.8641141250264,148.8641141250264,148.79754983400926,149.7600847920403,0,,,,,,,,ben,001,2025-08-14_14h57.00.346,tilt_staircase,2024.2.4,None,2025-08-14 14h57.08.782654 -0700,
,,,,,,,,,,,,,,,,,,,,,,,149.7657473750878,,,,,,,,,,,,,,,,,,,,,,,,,,,,,,,,,,,,,,,,,,,,,,,,,,,,,,,,,,,,,,negc_noss,30,-15,15,-15,"[5, 2, 1, 0.5, 0.25, 0.1]",lin,1,1,7,4,12,68,down,0.1,0.15,0.15,,149.76028404198587,149.7657473750878,149.7657473750878,150.25794629205484,150.25794629205484,150.3296930840006,150.3296930840006,150.3296930840006,150.26279549999163,151.26631333399564,1,,,,,,,,ben,001,2025-08-14_14h57.00.346,tilt_staircase,2024.2.4,None,2025-08-14 14h57.08.782654 -0700,
,,,,,,,,,,,,,,,,,,,,,,,151.27391354204156,,,,,,,,,,,,,,,,,,,,,,,,,,,,,,,,,,,,,,,,,,,,,,,,,,,,,,,,,,,,,,posc_poss,30,15,15,-15,"[5, 2, 1, 0.5, 0.25, 0.1]",lin,1,1,7,3,12,69,up,0.1,2.85,2.85,30,151.2668068750063,151.27391354204156,151.27391354204156,151.76655025000218,151.76655025000218,151.84196337498724,151.84196337498724,151.84196337498724,151.76655025000218,152.6106466250494,1,,,,,,,,ben,001,2025-08-14_14h57.00.346,tilt_staircase,2024.2.4,None,2025-08-14 14h57.08.782654 -0700,
,,,,,,,,,,,,,,,,,,,,,,,152.61857570905704,,,,,,,,,,,,,,,,,,,,,,,,,,,,,,,,,,,,,,,,,,,,,,,,,,,,,,,,,,,,,,negc_poss,30,-15,15,-15,"[5, 2, 1, 0.5, 0.25, 0.1]",lin,1,1,7,2,12,70,down,0.5,1.5,1.5,30,152.61140008398797,152.61857570905704,152.61857570905704,153.107215541997,153.107215541997,153.18018750008196,153.18018750008196,153.18018750008196,153.11307412502356,154.11605175002478,1,,,,,,,,ben,001,2025-08-14_14h57.00.346,tilt_staircase,2024.2.4,None,2025-08-14 14h57.08.782654 -0700,
,,,,,,,,,,,,,,,,,,,,,,,154.12411129206885,,,,,,,,,,,,,,,,,,,,,,,,,,,,,,,,,,,,,,,,,,,,,,,,,,,,,,,,,,,,,,negc_negs,30,-15,15,-15,"[5, 2, 1, 0.5, 0.25, 0.1]",lin,1,1,7,0,12,71,up,0.25,-1.75,-1.75,-30,154.11653683404438,154.12411129206885,154.12411129206885,154.6172160420101,154.6172160420101,154.69188012508675,154.69188012508675,154.69188012508675,154.6172160420101,155.32720345898997,1,,,,,,,,ben,001,2025-08-14_14h57.00.346,tilt_staircase,2024.2.4,None,2025-08-14 14h57.08.782654 -0700,
,,,,,,,,,,,,,,,,,,,,,,,155.3351245840313,,,,,,,,,,,,,,,,,,,,,,,,,,,,,,,,,,,,,,,,,,,,,,,,,,,,,,,,,,,,,,posc_noss,30,15,15,-15,"[5, 2, 1, 0.5, 0.25, 0.1]",lin,1,1,7,5,13,72,up,0.1,-0.65,-0.65,,155.3277626670897,155.3351245840313,155.3351245840313,155.82404204201885,155.82404204201885,155.89651933405548,155.89651933405548,155.89651933405548,155.8290406250162,156.85176129208412,0,,,,,,,,ben,001,2025-08-14_14h57.00.346,tilt_staircase,2024.2.4,None,2025-08-14 14h57.08.782654 -0700,
,,,,,,,,,,,,,,,,,,,,,,,156.8572191670537,,,,,,,,,,,,,,,,,,,,,,,,,,,,,,,,,,,,,,,,,,,,,,,,,,,,,,,,,,,,,,posc_poss,30,15,15,-15,"[5, 2, 1, 0.5, 0.25, 0.1]",lin,1,1,7,3,13,73,down,0.1,2.75,2.75,30,156.85219108406454,156.8572191670537,156.8572191670537,157.34911725006532,157.34911725006532,157.42523966706358,157.42523966706358,157.42523966706358,157.34911725006532,158.51632525003515,0,,,,,,,,ben,001,2025-08-14_14h57.00.346,tilt_staircase,2024.2.4,None,2025-08-14 14h57.08.782654 -0700,
,,,,,,,,,,,,,,,,,,,,,,,158.52436091704294,,,,,,,,,,,,,,,,,,,,,,,,,,,,,,,,,,,,,,,,,,,,,,,,,,,,,,,,,,,,,,posc_negs,30,15,15,-15,"[5, 2, 1, 0.5, 0.25, 0.1]",lin,1,1,7,1,13,74,up,0.1,-2.15,-2.15,-30,158.51679633406457,158.52436091704294,158.52436091704294,159.0162573340349,159.0162573340349,159.0918369999854,159.0918369999854,159.0918369999854,159.0162573340349,160.11065062507987,0,,,,,,,,ben,001,2025-08-14_14h57.00.346,tilt_staircase,2024.2.4,None,2025-08-14 14h57.08.782654 -0700,
,,,,,,,,,,,,,,,,,,,,,,,160.11880504200235,,,,,,,,,,,,,,,,,,,,,,,,,,,,,,,,,,,,,,,,,,,,,,,,,,,,,,,,,,,,,,negc_poss,30,-15,15,-15,"[5, 2, 1, 0.5, 0.25, 0.1]",lin,1,1,7,2,13,75,down,0.5,1.0,1.0,30,160.11137991701253,160.11880504200235,160.11880504200235,160.60761958407238,160.60761958407238,160.6814805000322,160.6814805000322,160.6814805000322,160.6122741670115,161.31029591709375,0,,,,,,,,ben,001,2025-08-14_14h57.00.346,tilt_staircase,2024.2.4,None,2025-08-14 14h57.08.782654 -0700,
,,,,,,,,,,,,,,,,,,,,,,,161.31793033401482,,,,,,,,,,,,,,,,,,,,,,,,,,,,,,,,,,,,,,,,,,,,,,,,,,,,,,,,,,,,,,negc_negs,30,-15,15,-15,"[5, 2, 1, 0.5, 0.25, 0.1]",lin,1,1,7,0,13,76,down,0.1,-1.85,-1.85,-30,161.3107580000069,161.31793033401482,161.31793033401482,161.80758179200348,161.80758179200348,161.88129050005227,161.88129050005227,161.88129050005227,161.81247954198625,162.5773607090814,1,,,,,,,,ben,001,2025-08-14_14h57.00.346,tilt_staircase,2024.2.4,None,2025-08-14 14h57.08.782654 -0700,
,,,,,,,,,,,,,,,,,,,,,,,162.58502279198729,,,,,,,,,,,,,,,,,,,,,,,,,,,,,,,,,,,,,,,,,,,,,,,,,,,,,,,,,,,,,,negc_noss,30,-15,15,-15,"[5, 2, 1, 0.5, 0.25, 0.1]",lin,1,1,7,4,13,77,down,0.1,0.04999999999999999,0.04999999999999999,,162.57787554198876,162.58502279198729,162.58502279198729,163.0737367500551,163.0737367500551,163.1482355000917,163.1482355000917,163.1482355000917,163.07873354200274,164.01581379200798,1,,,,,,,,ben,001,2025-08-14_14h57.00.346,tilt_staircase,2024.2.4,None,2025-08-14 14h57.08.782654 -0700,
,,,,,,,,,,,,,,,,,,,,,,,164.02359020907898,,,,,,,,,,,,,,,,,,,,,,,,,,,,,,,,,,,,,,,,,,,,,,,,,,,,,,,,,,,,,,posc_poss,30,15,15,-15,"[5, 2, 1, 0.5, 0.25, 0.1]",lin,1,1,7,3,14,78,up,0.1,2.85,2.85,30,164.01624545909,164.02359020907898,164.02359020907898,164.51620395900682,164.51620395900682,164.59187925001606,164.59187925001606,164.59187925001606,164.51620395900682,165.09937800001353,1,,,,,,,,ben,001,2025-08-14_14h57.00.346,tilt_staircase,2024.2.4,None,2025-08-14 14h57.08.782654 -0700,
,,,,,,,,,,,,,,,,,,,,,,,165.10701999999583,,,,,,,,,,,,,,,,,,,,,,,,,,,,,,,,,,,,,,,,,,,,,,,,,,,,,,,,,,,,,,negc_negs,30,-15,15,-15,"[5, 2, 1, 0.5, 0.25, 0.1]",lin,1,1,7,0,14,79,down,0.1,-1.9500000000000002,-1.9500000000000002,-30,165.0998246250674,165.10701999999583,165.10701999999583,165.5977708339924,165.5977708339924,165.67508604202885,165.67508604202885,165.67508604202885,165.5977708339924,166.2291501670843,1,,,,,,,,ben,001,2025-08-14_14h57.00.346,tilt_staircase,2024.2.4,None,2025-08-14 14h57.08.782654 -0700,
,,,,,,,,,,,,,,,,,,,,,,,166.23686708405148,,,,,,,,,,,,,,,,,,,,,,,,,,,,,,,,,,,,,,,,,,,,,,,,,,,,,,,,,,,,,,negc_noss,30,-15,15,-15,"[5, 2, 1, 0.5, 0.25, 0.1]",lin,1,1,7,4,14,80,down,0.1,-0.05000000000000002,-0.05000000000000002,,166.2297618750017,166.23686708405148,166.23686708405148,166.7237981670769,166.7237981670769,166.79779141698964,166.79779141698964,166.79779141698964,166.7301001250744,167.9774090840947,1,,,,,,,,ben,001,2025-08-14_14h57.00.346,tilt_staircase,2024.2.4,None,2025-08-14 14h57.08.782654 -0700,
,,,,,,,,,,,,,,,,,,,,,,,167.98626404209062,,,,,,,,,,,,,,,,,,,,,,,,,,,,,,,,,,,,,,,,,,,,,,,,,,,,,,,,,,,,,,negc_poss,30,-15,15,-15,"[5, 2, 1, 0.5, 0.25, 0.1]",lin,1,1,7,2,14,81,up,0.25,1.25,1.25,30,167.97827720898204,167.98626404209062,167.98626404209062,168.4752654590411,168.4752654590411,168.5476834590081,168.5476834590081,168.5476834590081,168.48054550006054,169.16021687502507,1,,,,,,,,ben,001,2025-08-14_14h57.00.346,tilt_staircase,2024.2.4,None,2025-08-14 14h57.08.782654 -0700,
,,,,,,,,,,,,,,,,,,,,,,,169.16823983401991,,,,,,,,,,,,,,,,,,,,,,,,,,,,,,,,,,,,,,,,,,,,,,,,,,,,,,,,,,,,,,posc_noss,30,15,15,-15,"[5, 2, 1, 0.5, 0.25, 0.1]",lin,1,1,7,5,14,82,up,0.1,-0.55,-0.55,,169.16075179202016,169.16823983401991,169.16823983401991,169.65776025003288,169.65776025003288,169.7305139170494,169.7305139170494,169.7305139170494,169.66492791706696,170.38629941700492,1,,,,,,,,ben,001,2025-08-14_14h57.00.346,tilt_staircase,2024.2.4,None,2025-08-14 14h57.08.782654 -0700,
,,,,,,,,,,,,,,,,,,,,,,,170.39148779201787,,,,,,,,,,,,,,,,,,,,,,,,,,,,,,,,,,,,,,,,,,,,,,,,,,,,,,,,,,,,,,posc_negs,30,15,15,-15,"[5, 2, 1, 0.5, 0.25, 0.1]",lin,1,1,7,1,14,83,up,0.1,-2.05,-2.05,-30,170.3867845000932,170.39148779201787,170.39148779201787,170.8830042090267,170.8830042090267,170.96457391709555,170.95850412501022,170.95850412501022,170.8830042090267,171.7442046670476,1,,,,,,,,ben,001,2025-08-14_14h57.00.346,tilt_staircase,2024.2.4,None,2025-08-14 14h57.08.782654 -0700,
,,,,,,,,,,,,,,,,,,,,,,,171.7525480419863,,,,,,,,,,,,,,,,,,,,,,,,,,,,,,,,,,,,,,,,,,,,,,,,,,,,,,,,,,,,,,posc_noss,30,15,15,-15,"[5, 2, 1, 0.5, 0.25, 0.1]",lin,1,1,7,5,15,84,down,0.1,-0.65,-0.65,,171.74490779207554,171.7525480419863,171.7525480419863,172.24069541704375,172.24069541704375,172.31277670909185,172.31277670909185,172.31277670909185,172.2455705840839,172.99281133408658,1,,,,,,,,ben,001,2025-08-14_14h57.00.346,tilt_staircase,2024.2.4,None,2025-08-14 14h57.08.782654 -0700,
,,,,,,,,,,,,,,,,,,,,,,,173.00025545898825,,,,,,,,,,,,,,,,,,,,,,,,,,,,,,,,,,,,,,,,,,,,,,,,,,,,,,,,,,,,,,negc_poss,30,-15,15,-15,"[5, 2, 1, 0.5, 0.25, 0.1]",lin,1,1,7,2,15,85,down,0.1,1.15,1.15,30,172.99321416707244,173.00025545898825,173.00025545898825,173.49159104202408,173.49159104202408,173.5644117500633,173.5644117500633,173.5644117500633,173.4970610840246,174.76611850003246,1,,,,,,,,ben,001,2025-08-14_14h57.00.346,tilt_staircase,2024.2.4,None,2025-08-14 14h57.08.782654 -0700,
,,,,,,,,,,,,,,,,,,,,,,,174.7743562500691,,,,,,,,,,,,,,,,,,,,,,,,,,,,,,,,,,,,,,,,,,,,,,,,,,,,,,,,,,,,,,posc_poss,30,15,15,-15,"[5, 2, 1, 0.5, 0.25, 0.1]",lin,1,1,7,3,15,86,down,0.1,2.75,2.75,30,174.76664970908314,174.7743562500691,174.7743562500691,175.26597833400592,175.26597833400592,175.34181700006593,175.34181700006593,175.34181700006593,175.26597833400592,175.91617029206827,1,,,,,,,,ben,001,2025-08-14_14h57.00.346,tilt_staircase,2024.2.4,None,2025-08-14 14h57.08.782654 -0700,
,,,,,,,,,,,,,,,,,,,,,,,175.923687875038,,,,,,,,,,,,,,,,,,,,,,,,,,,,,,,,,,,,,,,,,,,,,,,,,,,,,,,,,,,,,,negc_negs,30,-15,15,-15,"[5, 2, 1, 0.5, 0.25, 0.1]",lin,1,1,7,0,15,87,down,0.1,-2.0500000000000003,-2.0500000000000003,-30,175.9165981670376,175.923687875038,175.923687875038,176.41579433402512,176.41579433402512,176.49192537507042,176.49192537507042,176.49192537507042,176.41579433402512,177.16077104199212,1,,,,,,,,ben,001,2025-08-14_14h57.00.346,tilt_staircase,2024.2.4,None,2025-08-14 14h57.08.782654 -0700,
,,,,,,,,,,,,,,,,,,,,,,,177.1684065000154,,,,,,,,,,,,,,,,,,,,,,,,,,,,,,,,,,,,,,,,,,,,,,,,,,,,,,,,,,,,,,negc_noss,30,-15,15,-15,"[5, 2, 1, 0.5, 0.25, 0.1]",lin,1,1,7,4,15,88,down,0.1,-0.15000000000000002,-0.15000000000000002,,177.16131541703362,177.1684065000154,177.1684065000154,177.65705562499352,177.65705562499352,177.73180287505966,177.73180287505966,177.73180287505966,177.66189420898445,178.37642375007272,1,,,,,,,,ben,001,2025-08-14_14h57.00.346,tilt_staircase,2024.2.4,None,2025-08-14 14h57.08.782654 -0700,
,,,,,,,,,,,,,,,,,,,,,,,178.38380670908373,,,,,,,,,,,,,,,,,,,,,,,,,,,,,,,,,,,,,,,,,,,,,,,,,,,,,,,,,,,,,,posc_negs,30,15,15,-15,"[5, 2, 1, 0.5, 0.25, 0.1]",lin,1,1,7,1,15,89,down,0.1,-2.15,-2.15,-30,178.3768295419868,178.38380670908373,178.38380670908373,178.8739934170153,178.8739934170153,178.94810070900712,178.94810070900712,178.94810070900712,178.87881204206496,179.63534029200673,1,,,,,,,,ben,001,2025-08-14_14h57.00.346,tilt_staircase,2024.2.4,None,2025-08-14 14h57.08.782654 -0700,
,,,,,,,,,,,,,,,,,,,,,,,179.64047195902094,,,,,,,,,,,,,,,,,,,,,,,,,,,,,,,,,,,,,,,,,,,,,,,,,,,,,,,,,,,,,,posc_noss,30,15,15,-15,"[5, 2, 1, 0.5, 0.25, 0.1]",lin,1,1,7,5,16,90,down,0.1,-0.75,-0.75,,179.63576837501023,179.64047195902094,179.64047195902094,180.13314412499312,180.13314412499312,180.2084530000575,180.2084530000575,180.2084530000575,180.13314412499312,181.11056454200298,1,,,,,,,,ben,001,2025-08-14_14h57.00.346,tilt_staircase,2024.2.4,None,2025-08-14 14h57.08.782654 -0700,
,,,,,,,,,,,,,,,,,,,,,,,181.118760875077,,,,,,,,,,,,,,,,,,,,,,,,,,,,,,,,,,,,,,,,,,,,,,,,,,,,,,,,,,,,,,posc_negs,30,15,15,-15,"[5, 2, 1, 0.5, 0.25, 0.1]",lin,1,1,7,1,16,91,down,0.1,-2.25,-2.25,-30,181.11134916706942,181.118760875077,181.118760875077,181.60756054206286,181.60756054206286,181.68128262506798,181.68128262506798,181.68128262506798,181.61251275008544,182.4772662090836,1,,,,,,,,ben,001,2025-08-14_14h57.00.346,tilt_staircase,2024.2.4,None,2025-08-14 14h57.08.782654 -0700,
,,,,,,,,,,,,,,,,,,,,,,,182.48525475000497,,,,,,,,,,,,,,,,,,,,,,,,,,,,,,,,,,,,,,,,,,,,,,,,,,,,,,,,,,,,,,negc_negs,30,-15,15,-15,"[5, 2, 1, 0.5, 0.25, 0.1]",lin,1,1,7,0,16,92,down,0.1,-2.1500000000000004,-2.1500000000000004,-30,182.47779445908964,182.48525475000497,182.48525475000497,182.9740130000282,182.9740130000282,183.0477424170822,183.0477424170822,183.0477424170822,182.979589875089,183.62713462498505,0,,,,,,,,ben,001,2025-08-14_14h57.00.346,tilt_staircase,2024.2.4,None,2025-08-14 14h57.08.782654 -0700,
,,,,,,,,,,,,,,,,,,,,,,,183.63484279206023,,,,,,,,,,,,,,,,,,,,,,,,,,,,,,,,,,,,,,,,,,,,,,,,,,,,,,,,,,,,,,negc_noss,30,-15,15,-15,"[5, 2, 1, 0.5, 0.25, 0.1]",lin,1,1,7,4,16,93,down,0.1,-0.25,-0.25,,183.62772508407943,183.63484279206023,183.63484279206023,184.12428904208355,184.12428904208355,184.19764766702428,184.19764766702428,184.19764766702428,184.12926320906263,184.8267213749932,0,,,,,,,,ben,001,2025-08-14_14h57.00.346,tilt_staircase,2024.2.4,None,2025-08-14 14h57.08.782654 -0700,
,,,,,,,,,,,,,,,,,,,,,,,184.83426700008567,,,,,,,,,,,,,,,,,,,,,,,,,,,,,,,,,,,,,,,,,,,,,,,,,,,,,,,,,,,,,,negc_poss,30,-15,15,-15,"[5, 2, 1, 0.5, 0.25, 0.1]",lin,1,1,7,2,16,94,down,0.1,1.0499999999999998,1.0499999999999998,30,184.82715825003106,184.83426700008567,184.83426700008567,185.3239846250508,185.3239846250508,185.39819766709115,185.39819766709115,185.39819766709115,185.32904170907568,186.24259191704914,1,,,,,,,,ben,001,2025-08-14_14h57.00.346,tilt_staircase,2024.2.4,None,2025-08-14 14h57.08.782654 -0700,
,,,,,,,,,,,,,,,,,,,,,,,186.24989991704933,,,,,,,,,,,,,,,,,,,,,,,,,,,,,,,,,,,,,,,,,,,,,,,,,,,,,,,,,,,,,,posc_poss,30,15,15,-15,"[5, 2, 1, 0.5, 0.25, 0.1]",lin,1,1,7,3,16,95,down,0.1,2.65,2.65,30,186.2430034170393,186.24989991704933,186.24989991704933,186.73296154208947,186.73296154208947,186.81425366702024,186.80837170907762,186.80837170907762,186.74061191699002,187.39376591704786,1,,,,,,,,ben,001,2025-08-14_14h57.00.346,tilt_staircase,2024.2.4,None,2025-08-14 14h57.08.782654 -0700,
,,,,,,,,,,,,,,,,,,,,,,,187.40086841699667,,,,,,,,,,,,,,,,,,,,,,,,,,,,,,,,,,,,,,,,,,,,,,,,,,,,,,,,,,,,,,negc_poss,30,-15,15,-15,"[5, 2, 1, 0.5, 0.25, 0.1]",lin,1,1,7,2,17,96,down,0.1,0.9499999999999998,0.9499999999999998,30,187.3942795000039,187.40086841699667,187.40086841699667,187.8914987089811,187.8914987089811,187.96465562505182,187.96465562505182,187.96465562505182,187.89707654202357,188.52853179199155,1,,,,,,,,ben,001,2025-08-14_14h57.00.346,tilt_staircase,2024.2.4,None,2025-08-14 14h57.08.782654 -0700,
,,,,,,,,,,,,,,,,,,,,,,,188.53644812502898,,,,,,,,,,,,,,,,,,,,,,,,,,,,,,,,,,,,,,,,,,,,,,,,,,,,,,,,,,,,,,negc_noss,30,-15,15,-15,"[5, 2, 1, 0.5, 0.25, 0.1]",lin,1,1,7,4,17,97,up,0.1,-0.15,-0.15,,188.52906262502074,188.53644812502898,188.53644812502898,189.02518050000072,189.02518050000072,189.0975889590336,189.0975889590336,189.0975889590336,189.0314197500702,189.73298308404628,1,,,,,,,,ben,001,2025-08-14_14h57.00.346,tilt_staircase,2024.2.4,None,2025-08-14 14h57.08.782654 -0700,
,,,,,,,,,,,,,,,,,,,,,,,189.74104824999813,,,,,,,,,,,,,,,,,,,,,,,,,,,,,,,,,,,,,,,,,,,,,,,,,,,,,,,,,,,,,,posc_noss,30,15,15,-15,"[5, 2, 1, 0.5, 0.25, 0.1]",lin,1,1,7,5,17,98,down,0.1,-0.85,-0.85,,189.7334409999894,189.74104824999813,189.74104824999813,190.23043429199606,190.23043429199606,190.30839354207274,190.30839354207274,190.30839354207274,190.23043429199606,191.46070716704708,1,,,,,,,,ben,001,2025-08-14_14h57.00.346,tilt_staircase,2024.2.4,None,2025-08-14 14h57.08.782654 -0700,
,,,,,,,,,,,,,,,,,,,,,,,191.4686445420375,,,,,,,,,,,,,,,,,,,,,,,,,,,,,,,,,,,,,,,,,,,,,,,,,,,,,,,,,,,,,,negc_negs,30,-15,15,-15,"[5, 2, 1, 0.5, 0.25, 0.1]",lin,1,1,7,0,17,99,up,0.1,-2.0500000000000003,-2.0500000000000003,-30,191.46121566707734,191.4686445420375,191.4686445420375,191.95738450007048,191.95738450007048,192.0294315420324,192.0294315420324,192.0294315420324,191.9632335420465,193.61047670908738,1,,,,,,,,ben,001,2025-08-14_14h57.00.346,tilt_staircase,2024.2.4,None,2025-08-14 14h57.08.782654 -0700,
,,,,,,,,,,,,,,,,,,,,,,,193.619050584035,,,,,,,,,,,,,,,,,,,,,,,,,,,,,,,,,,,,,,,,,,,,,,,,,,,,,,,,,,,,,,posc_negs,30,15,15,-15,"[5, 2, 1, 0.5, 0.25, 0.1]",lin,1,1,7,1,17,100,down,0.1,-2.35,-2.35,-30,193.6113247090252,193.619050584035,193.619050584035,194.10740087507293,194.10740087507293,194.17926029209048,194.17926029209048,194.17926029209048,194.11258741701022,194.89729279198218,0,,,,,,,,ben,001,2025-08-14_14h57.00.346,tilt_staircase,2024.2.4,None,2025-08-14 14h57.08.782654 -0700,
,,,,,,,,,,,,,,,,,,,,,,,194.90698966698255,,,,,,,,,,,,,,,,,,,,,,,,,,,,,,,,,,,,,,,,,,,,,,,,,,,,,,,,,,,,,,posc_poss,30,15,15,-15,"[5, 2, 1, 0.5, 0.25, 0.1]",lin,1,1,7,3,17,101,down,0.1,2.55,2.55,30,194.89754754200112,194.90698966698255,194.90698966698255,195.39763391704764,195.39763391704764,195.4742054170929,195.4742054170929,195.4742054170929,195.39763391704764,196.09308150003199,1,,,,,,,,ben,001,2025-08-14_14h57.00.346,tilt_staircase,2024.2.4,None,2025-08-14 14h57.08.782654 -0700,
,,,,,,,,,,,,,,,,,,,,,,,196.10033233405557,,,,,,,,,,,,,,,,,,,,,,,,,,,,,,,,,,,,,,,,,,,,,,,,,,,,,,,,,,,,,,posc_noss,30,15,15,-15,"[5, 2, 1, 0.5, 0.25, 0.1]",lin,1,1,7,5,18,102,down,0.1,-0.95,-0.95,,196.09365925006568,196.10033233405557,196.10033233405557,196.59055629197974,196.59055629197974,196.6622793340357,196.6622793340357,196.6622793340357,196.59665904205758,197.2761458340101,1,,,,,,,,ben,001,2025-08-14_14h57.00.346,tilt_staircase,2024.2.4,None,2025-08-14 14h57.08.782654 -0700,
,,,,,,,,,,,,,,,,,,,,,,,197.28233320906293,,,,,,,,,,,,,,,,,,,,,,,,,,,,,,,,,,,,,,,,,,,,,,,,,,,,,,,,,,,,,,negc_noss,30,-15,15,-15,"[5, 2, 1, 0.5, 0.25, 0.1]",lin,1,1,7,4,18,103,down,0.1,-0.25,-0.25,,197.27670383406803,197.28233320906293,197.28233320906293,197.77400366705842,197.77400366705842,197.84776487504132,197.84776487504132,197.84776487504132,197.77899412508123,198.42618350009434,0,,,,,,,,ben,001,2025-08-14_14h57.00.346,tilt_staircase,2024.2.4,None,2025-08-14 14h57.08.782654 -0700,
,,,,,,,,,,,,,,,,,,,,,,,198.43171112507116,,,,,,,,,,,,,,,,,,,,,,,,,,,,,,,,,,,,,,,,,,,,,,,,,,,,,,,,,,,,,,negc_poss,30,-15,15,-15,"[5, 2, 1, 0.5, 0.25, 0.1]",lin,1,1,7,2,18,104,down,0.1,0.8499999999999999,0.8499999999999999,30,198.42665166698862,198.43171112507116,198.43171112507116,198.92402983398642,198.92402983398642,198.99580212507863,198.99580212507863,198.99580212507863,198.92945858405437,199.4969505839981,1,,,,,,,,ben,001,2025-08-14_14h57.00.346,tilt_staircase,2024.2.4,None,2025-08-14 14h57.08.782654 -0700,
,,,,,,,,,,,,,,,,,,,,,,,199.50702758401167,,,,,,,,,,,,,,,,,,,,,,,,,,,,,,,,,,,,,,,,,,,,,,,,,,,,,,,,,,,,,,posc_poss,30,15,15,-15,"[5, 2, 1, 0.5, 0.25, 0.1]",lin,1,1,7,3,18,105,down,0.1,2.4499999999999997,2.4499999999999997,30,199.4971638750285,199.50702758401167,199.50702758401167,199.99730466702022,199.99730466702022,200.07384325005114,200.07384325005114,200.07384325005114,199.99730466702022,200.72640345909167,1,,,,,,,,ben,001,2025-08-14_14h57.00.346,tilt_staircase,2024.2.4,None,2025-08-14 14h57.08.782654 -0700,
,,,,,,,,,,,,,,,,,,,,,,,200.73293029202614,,,,,,,,,,,,,,,,,,,,,,,,,,,,,,,,,,,,,,,,,,,,,,,,,,,,,,,,,,,,,,posc_negs,30,15,15,-15,"[5, 2, 1, 0.5, 0.25, 0.1]",lin,1,1,7,1,18,106,up,0.1,-2.25,-2.25,-30,200.72690908401273,200.73293029202614,200.73293029202614,201.2247360420879,201.2247360420879,201.2977386250859,201.2977386250859,201.2977386250859,201.22953558398876,202.04943041701335,0,,,,,,,,ben,001,2025-08-14_14h57.00.346,tilt_staircase,2024.2.4,None,2025-08-14 14h57.08.782654 -0700,
,,,,,,,,,,,,,,,,,,,,,,,202.05718275008257,,,,,,,,,,,,,,,,,,,,,,,,,,,,,,,,,,,,,,,,,,,,,,,,,,,,,,,,,,,,,,negc_negs,30,-15,15,-15,"[5, 2, 1, 0.5, 0.25, 0.1]",lin,1,1,7,0,18,107,down,0.1,-2.1500000000000004,-2.1500000000000004,-30,202.04981591703836,202.05718275008257,202.05718275008257,202.54908975004219,202.54908975004219,202.63049237499945,202.6252848750446,202.6252848750446,202.54908975004219,203.24410020909272,1,,,,,,,,ben,001,2025-08-14_14h57.00.346,tilt_staircase,2024.2.4,None,2025-08-14 14h57.08.782654 -0700,
,,,,,,,,,,,,,,,,,,,,,,,203.2526237090351,,,,,,,,,,,,,,,,,,,,,,,,,,,,,,,,,,,,,,,,,,,,,,,,,,,,,,,,,,,,,,posc_negs,30,15,15,-15,"[5, 2, 1, 0.5, 0.25, 0.1]",lin,1,1,7,1,19,108,up,0.1,-2.15,-2.15,-30,203.24501587508712,203.2526237090351,203.2526237090351,203.74187750008423,203.74187750008423,203.8142363340594,203.8142363340594,203.8142363340594,203.74738045898266,204.60798625007737,1,,,,,,,,ben,001,2025-08-14_14h57.00.346,tilt_staircase,2024.2.4,None,2025-08-14 14h57.08.782654 -0700,
,,,,,,,,,,,,,,,,,,,,,,,204.6128507090034,,,,,,,,,,,,,,,,,,,,,,,,,,,,,,,,,,,,,,,,,,,,,,,,,,,,,,,,,,,,,,negc_noss,30,-15,15,-15,"[5, 2, 1, 0.5, 0.25, 0.1]",lin,1,1,7,4,19,109,up,0.1,-0.15,-0.15,,204.6084370840108,204.6128507090034,204.6128507090034,205.09986683400348,205.09986683400348,205.18059308407828,205.17504433402792,205.17504433402792,205.107035833993,205.69406616699416,1,,,,,,,,ben,001,2025-08-14_14h57.00.346,tilt_staircase,2024.2.4,None,2025-08-14 14h57.08.782654 -0700,
,,,,,,,,,,,,,,,,,,,,,,,205.7021222920157,,,,,,,,,,,,,,,,,,,,,,,,,,,,,,,,,,,,,,,,,,,,,,,,,,,,,,,,,,,,,,negc_poss,30,-15,15,-15,"[5, 2, 1, 0.5, 0.25, 0.1]",lin,1,1,7,2,19,110,down,0.1,0.7499999999999999,0.7499999999999999,30,205.69466608401854,205.7021222920157,205.7021222920157,206.1902777920477,206.1902777920477,206.26296000008006,206.26296000008006,206.26296000008006,206.19513091701083,206.86000704206526,1,,,,,,,,ben,001,2025-08-14_14h57.00.346,tilt_staircase,2024.2.4,None,2025-08-14 14h57.08.782654 -0700,
,,,,,,,,,,,,,,,,,,,,,,,206.8678070420865,,,,,,,,,,,,,,,,,,,,,,,,,,,,,,,,,,,,,,,,,,,,,,,,,,,,,,,,,,,,,,posc_noss,30,15,15,-15,"[5, 2, 1, 0.5, 0.25, 0.1]",lin,1,1,7,5,19,111,down,0.1,-1.05,-1.05,,206.8604371669935,206.8678070420865,206.8678070420865,207.35704295907635,207.35704295907635,207.43104791699443,207.43104791699443,207.43104791699443,207.36189175001346,207.9158955840394,1,,,,,,,,ben,001,2025-08-14_14h57.00.346,tilt_staircase,2024.2.4,None,2025-08-14 14h57.08.782654 -0700,
,,,,,,,,,,,,,,,,,,,,,,,207.92366495903116,,,,,,,,,,,,,,,,,,,,,,,,,,,,,,,,,,,,,,,,,,,,,,,,,,,,,,,,,,,,,,posc_poss,30,15,15,-15,"[5, 2, 1, 0.5, 0.25, 0.1]",lin,1,1,7,3,19,112,down,0.1,2.3499999999999996,2.3499999999999996,30,207.91644749999978,207.92366495903116,207.92366495903116,208.41626670898404,208.41626670898404,208.49172870907933,208.49172870907933,208.49172870907933,208.41626670898404,209.0474975000834,1,,,,,,,,ben,001,2025-08-14_14h57.00.346,tilt_staircase,2024.2.4,None,2025-08-14 14h57.08.782654 -0700,
,,,,,,,,,,,,,,,,,,,,,,,209.0570372090442,,,,,,,,,,,,,,,,,,,,,,,,,,,,,,,,,,,,,,,,,,,,,,,,,,,,,,,,,,,,,,negc_negs,30,-15,15,-15,"[5, 2, 1, 0.5, 0.25, 0.1]",lin,1,1,7,0,19,113,down,0.1,-2.2500000000000004,-2.2500000000000004,-30,209.04792975005694,209.0570372090442,209.0570372090442,209.54095687507652,209.54095687507652,209.62512316706125,209.61369420902338,209.61369420902338,209.54606037505437,210.46867395902518,1,,,,,,,,ben,001,2025-08-14_14h57.00.346,tilt_staircase,2024.2.4,None,2025-08-14 14h57.08.782654 -0700,
,,,,,,,,,,,,,,,,,,,,,,,210.47387300000992,,,,,,,,,,,,,,,,,,,,,,,,,,,,,,,,,,,,,,,,,,,,,,,,,,,,,,,,,,,,,,negc_poss,30,-15,15,-15,"[5, 2, 1, 0.5, 0.25, 0.1]",lin,1,1,7,2,20,114,down,0.1,0.6499999999999999,0.6499999999999999,30,210.46912804199383,210.47387300000992,210.47387300000992,210.96618895907886,210.96618895907886,211.04195112502202,211.04195112502202,211.04195112502202,210.96618895907886,211.7658143340377,1,,,,,,,,ben,001,2025-08-14_14h57.00.346,tilt_staircase,2024.2.4,None,2025-08-14 14h57.08.782654 -0700,
,,,,,,,,,,,,,,,,,,,,,,,211.7734877500916,,,,,,,,,,,,,,,,,,,,,,,,,,,,,,,,,,,,,,,,,,,,,,,,,,,,,,,,,,,,,,posc_negs,30,15,15,-15,"[5, 2, 1, 0.5, 0.25, 0.1]",lin,1,1,7,1,20,115,down,0.1,-2.25,-2.25,-30,211.76623791700695,211.7734877500916,211.7734877500916,212.26580395898782,212.26580395898782,212.34170604206156,212.34170604206156,212.34170604206156,212.26580395898782,212.97697375004645,0,,,,,,,,ben,001,2025-08-14_14h57.00.346,tilt_staircase,2024.2.4,None,2025-08-14 14h57.08.782654 -0700,
,,,,,,,,,,,,,,,,,,,,,,,212.98471145902295,,,,,,,,,,,,,,,,,,,,,,,,,,,,,,,,,,,,,,,,,,,,,,,,,,,,,,,,,,,,,,negc_noss,30,-15,15,-15,"[5, 2, 1, 0.5, 0.25, 0.1]",lin,1,1,7,4,20,116,down,0.1,-0.25,-0.25,,212.97767533408478,212.98471145902295,212.98471145902295,213.4739450000925,213.4739450000925,213.5494581250241,213.5494581250241,213.5494581250241,213.47878241701983,214.24366633407772,0,,,,,,,,ben,001,2025-08-14_14h57.00.346,tilt_staircase,2024.2.4,None,2025-08-14 14h57.08.782654 -0700,
,,,,,,,,,,,,,,,,,,,,,,,214.2514043340925,,,,,,,,,,,,,,,,,,,,,,,,,,,,,,,,,,,,,,,,,,,,,,,,,,,,,,,,,,,,,,posc_poss,30,15,15,-15,"[5, 2, 1, 0.5, 0.25, 0.1]",lin,1,1,7,3,20,117,down,0.1,2.2499999999999996,2.2499999999999996,30,214.24415279203095,214.2514043340925,214.2514043340925,214.74143791699316,214.74143791699316,214.8141902090283,214.8141902090283,214.8141902090283,214.74663662503008,215.6990525840083,1,,,,,,,,ben,001,2025-08-14_14h57.00.346,tilt_staircase,2024.2.4,None,2025-08-14 14h57.08.782654 -0700,
,,,,,,,,,,,,,,,,,,,,,,,215.70725279208273,,,,,,,,,,,,,,,,,,,,,,,,,,,,,,,,,,,,,,,,,,,,,,,,,,,,,,,,,,,,,,negc_negs,30,-15,15,-15,"[5, 2, 1, 0.5, 0.25, 0.1]",lin,1,1,7,0,20,118,down,0.1,-2.3500000000000005,-2.3500000000000005,-30,215.69949462509248,215.70725279208273,215.70725279208273,216.19934187503532,216.19934187503532,216.2753240420716,216.2753240420716,216.2753240420716,216.19934187503532,216.8935475840699,1,,,,,,,,ben,001,2025-08-14_14h57.00.346,tilt_staircase,2024.2.4,None,2025-08-14 14h57.08.782654 -0700,
,,,,,,,,,,,,,,,,,,,,,,,216.90139679203276,,,,,,,,,,,,,,,,,,,,,,,,,,,,,,,,,,,,,,,,,,,,,,,,,,,,,,,,,,,,,,posc_noss,30,15,15,-15,"[5, 2, 1, 0.5, 0.25, 0.1]",lin,1,1,7,5,20,119,down,0.1,-1.1500000000000001,-1.1500000000000001,,216.89420683402568,216.90139679203276,216.90139679203276,217.39063470903784,217.39063470903784,217.46440512500703,217.46440512500703,217.46440512500703,217.3956480420893,218.24389737506863,1,,,,,,,,ben,001,2025-08-14_14h57.00.346,tilt_staircase,2024.2.4,None,2025-08-14 14h57.08.782654 -0700,
,,,,,,,,,,,,,,,,,,,,,,,218.2521651670104,,,,,,,,,,,,,,,,,,,,,,,,,,,,,,,,,,,,,,,,,,,,,,,,,,,,,,,,,,,,,,negc_noss,30,-15,15,-15,"[5, 2, 1, 0.5, 0.25, 0.1]",lin,1,1,7,4,21,120,up,0.1,-0.15,-0.15,,218.24475187505595,218.2521651670104,218.2521651670104,218.74035775009543,218.74035775009543,218.81421116704587,218.81421116704587,218.81421116704587,218.7452545419801,219.62658662500326,1,,,,,,,,ben,001,2025-08-14_14h57.00.346,tilt_staircase,2024.2.4,None,2025-08-14 14h57.08.782654 -0700,
,,,,,,,,,,,,,,,,,,,,,,,219.6339070420945,,,,,,,,,,,,,,,,,,,,,,,,,,,,,,,,,,,,,,,,,,,,,,,,,,,,,,,,,,,,,,negc_negs,30,-15,15,-15,"[5, 2, 1, 0.5, 0.25, 0.1]",lin,1,1,7,0,21,121,down,0.1,-2.4500000000000006,-2.4500000000000006,-30,219.62704154208768,219.6339070420945,219.6339070420945,220.12507133407053,220.12507133407053,220.1977915840689,220.1977915840689,220.1977915840689,220.13209595903754,220.76827170909382,1,,,,,,,,ben,001,2025-08-14_14h57.00.346,tilt_staircase,2024.2.4,None,2025-08-14 14h57.08.782654 -0700,
,,,,,,,,,,,,,,,,,,,,,,,220.77353745908476,,,,,,,,,,,,,,,,,,,,,,,,,,,,,,,,,,,,,,,,,,,,,,,,,,,,,,,,,,,,,,posc_noss,30,15,15,-15,"[5, 2, 1, 0.5, 0.25, 0.1]",lin,1,1,7,5,21,122,down,0.1,-1.2500000000000002,-1.2500000000000002,,220.76871395902708,220.77353745908476,220.77353745908476,221.26616062503308,221.26616062503308,221.34173212503083,221.34173212503083,221.34173212503083,221.26616062503308,221.86036041704938,0,,,,,,,,ben,001,2025-08-14_14h57.00.346,tilt_staircase,2024.2.4,None,2025-08-14 14h57.08.782654 -0700,
,,,,,,,,,,,,,,,,,,,,,,,221.8678072920302,,,,,,,,,,,,,,,,,,,,,,,,,,,,,,,,,,,,,,,,,,,,,,,,,,,,,,,,,,,,,,negc_poss,30,-15,15,-15,"[5, 2, 1, 0.5, 0.25, 0.1]",lin,1,1,7,2,21,123,down,0.1,0.5499999999999999,0.5499999999999999,30,221.8609873750247,221.8678072920302,221.8678072920302,222.35734991705976,222.35734991705976,222.43199599999934,222.43199599999934,222.43199599999934,222.36233741708566,223.04344799998216,0,,,,,,,,ben,001,2025-08-14_14h57.00.346,tilt_staircase,2024.2.4,None,2025-08-14 14h57.08.782654 -0700,
,,,,,,,,,,,,,,,,,,,,,,,223.05108945898246,,,,,,,,,,,,,,,,,,,,,,,,,,,,,,,,,,,,,,,,,,,,,,,,,,,,,,,,,,,,,,posc_negs,30,15,15,-15,"[5, 2, 1, 0.5, 0.25, 0.1]",lin,1,1,7,1,21,124,up,0.1,-2.15,-2.15,-30,223.04410912503954,223.05108945898246,223.05108945898246,223.54103366704658,223.54103366704658,223.61451229208615,223.61451229208615,223.61451229208615,223.5477531250799,224.59487324999645,1,,,,,,,,ben,001,2025-08-14_14h57.00.346,tilt_staircase,2024.2.4,None,2025-08-14 14h57.08.782654 -0700,
,,,,,,,,,,,,,,,,,,,,,,,224.60320470901206,,,,,,,,,,,,,,,,,,,,,,,,,,,,,,,,,,,,,,,,,,,,,,,,,,,,,,,,,,,,,,posc_poss,30,15,15,-15,"[5, 2, 1, 0.5, 0.25, 0.1]",lin,1,1,7,3,21,125,down,0.1,2.1499999999999995,2.1499999999999995,30,224.59565562498756,224.60320470901206,224.60320470901206,225.09074950008653,225.09074950008653,225.16447145899292,225.16447145899292,225.16447145899292,225.0957649589982,225.87723108404316,1,,,,,,,,ben,001,2025-08-14_14h57.00.346,tilt_staircase,2024.2.4,None,2025-08-14 14h57.08.782654 -0700,
,,,,,,,,,,,,,,,,,,,,,,,225.88547470909543,,,,,,,,,,,,,,,,,,,,,,,,,,,,,,,,,,,,,,,,,,,,,,,,,,,,,,,,,,,,,,posc_negs,30,15,15,-15,"[5, 2, 1, 0.5, 0.25, 0.1]",lin,1,1,7,1,22,126,down,0.1,-2.25,-2.25,-30,225.87791858403943,225.88547470909543,225.88547470909543,226.3753609590931,226.3753609590931,226.44761591707356,226.44761591707356,226.44761591707356,226.3822492500767,227.0262309589889,1,,,,,,,,ben,001,2025-08-14_14h57.00.346,tilt_staircase,2024.2.4,None,2025-08-14 14h57.08.782654 -0700,
,,,,,,,,,,,,,,,,,,,,,,,227.03218962508254,,,,,,,,,,,,,,,,,,,,,,,,,,,,,,,,,,,,,,,,,,,,,,,,,,,,,,,,,,,,,,negc_noss,30,-15,15,-15,"[5, 2, 1, 0.5, 0.25, 0.1]",lin,1,1,7,4,22,127,down,0.1,-0.25,-0.25,,227.02651679201517,227.03218962508254,227.03218962508254,227.52415512502193,227.52415512502193,227.5975142089883,227.5975142089883,227.5975142089883,227.52950033405796,228.1603847920196,0,,,,,,,,ben,001,2025-08-14_14h57.00.346,tilt_staircase,2024.2.4,None,2025-08-14 14h57.08.782654 -0700,
,,,,,,,,,,,,,,,,,,,,,,,228.16880991705693,,,,,,,,,,,,,,,,,,,,,,,,,,,,,,,,,,,,,,,,,,,,,,,,,,,,,,,,,,,,,,negc_poss,30,-15,15,-15,"[5, 2, 1, 0.5, 0.25, 0.1]",lin,1,1,7,2,22,128,up,0.1,0.6499999999999999,0.6499999999999999,30,228.16119366697967,228.16880991705693,228.16880991705693,228.6571924170712,228.6571924170712,228.7302851669956,228.7302851669956,228.7302851669956,228.6622017089976,229.48597508401144,0,,,,,,,,ben,001,2025-08-14_14h57.00.346,tilt_staircase,2024.2.4,None,2025-08-14 14h57.08.782654 -0700,
,,,,,,,,,,,,,,,,,,,,,,,229.49112904199865,,,,,,,,,,,,,,,,,,,,,,,,,,,,,,,,,,,,,,,,,,,,,,,,,,,,,,,,,,,,,,negc_negs,30,-15,15,-15,"[5, 2, 1, 0.5, 0.25, 0.1]",lin,1,1,7,0,22,129,down,0.1,-2.5500000000000007,-2.5500000000000007,-30,229.48644304205664,229.49112904199865,229.49112904199865,229.98285870905966,229.98285870905966,230.0641382089816,230.05846195900813,230.05846195900813,229.98285870905966,230.72685866698157,0,,,,,,,,ben,001,2025-08-14_14h57.00.346,tilt_staircase,2024.2.4,None,2025-08-14 14h57.08.782654 -0700,
,,,,,,,,,,,,,,,,,,,,,,,230.7347416250268,,,,,,,,,,,,,,,,,,,,,,,,,,,,,,,,,,,,,,,,,,,,,,,,,,,,,,,,,,,,,,posc_poss,30,15,15,-15,"[5, 2, 1, 0.5, 0.25, 0.1]",lin,1,1,7,3,22,130,down,0.1,2.0499999999999994,2.0499999999999994,30,230.72729579207953,230.7347416250268,230.7347416250268,231.22358258406166,231.22358258406166,231.29602616699412,231.29602616699412,231.29602616699412,231.22854325000662,231.84414216701407,0,,,,,,,,ben,001,2025-08-14_14h57.00.346,tilt_staircase,2024.2.4,None,2025-08-14 14h57.08.782654 -0700,
,,,,,,,,,,,,,,,,,,,,,,,231.85246775008272,,,,,,,,,,,,,,,,,,,,,,,,,,,,,,,,,,,,,,,,,,,,,,,,,,,,,,,,,,,,,,posc_noss,30,15,15,-15,"[5, 2, 1, 0.5, 0.25, 0.1]",lin,1,1,7,5,22,131,up,0.1,-1.1500000000000001,-1.1500000000000001,,231.8449632920092,231.85246775008272,231.85246775008272,232.34051879204344,232.34051879204344,232.4143693340011,232.4143693340011,232.4143693340011,232.34586100000888,232.9667355840793,0,,,,,,,,ben,001,2025-08-14_14h57.00.346,tilt_staircase,2024.2.4,None,2025-08-14 14h57.08.782654 -0700,
,,,,,,,,,,,,,,,,,,,,,,,232.9742322920356,,,,,,,,,,,,,,,,,,,,,,,,,,,,,,,,,,,,,,,,,,,,,,,,,,,,,,,,,,,,,,posc_noss,30,15,15,-15,"[5, 2, 1, 0.5, 0.25, 0.1]",lin,1,1,7,5,23,132,up,0.1,-1.05,-1.05,,232.96715291705914,232.9742322920356,232.9742322920356,233.46577233402058,233.46577233402058,233.54095133405644,233.54095133405644,233.54095133405644,233.46577233402058,234.19863425008953,0,,,,,,,,ben,001,2025-08-14_14h57.00.346,tilt_staircase,2024.2.4,None,2025-08-14 14h57.08.782654 -0700,
,,,,,,,,,,,,,,,,,,,,,,,234.20703279203735,,,,,,,,,,,,,,,,,,,,,,,,,,,,,,,,,,,,,,,,,,,,,,,,,,,,,,,,,,,,,,posc_negs,30,15,15,-15,"[5, 2, 1, 0.5, 0.25, 0.1]",lin,1,1,7,1,23,133,down,0.1,-2.35,-2.35,-30,234.19890641700476,234.20703279203735,234.20703279203735,234.69982325006276,234.69982325006276,234.77483245905023,234.77483245905023,234.77483245905023,234.69982325006276,235.53021620900836,0,,,,,,,,ben,001,2025-08-14_14h57.00.346,tilt_staircase,2024.2.4,None,2025-08-14 14h57.08.782654 -0700,
,,,,,,,,,,,,,,,,,,,,,,,235.54069837508723,,,,,,,,,,,,,,,,,,,,,,,,,,,,,,,,,,,,,,,,,,,,,,,,,,,,,,,,,,,,,,posc_poss,30,15,15,-15,"[5, 2, 1, 0.5, 0.25, 0.1]",lin,1,1,7,3,23,134,up,0.1,2.1499999999999995,2.1499999999999995,30,235.53064695908688,235.54069837508723,235.54069837508723,236.02362454205286,236.02362454205286,236.10839325003326,236.09646833408624,236.09646833408624,236.02853391703684,237.97708791703917,0,,,,,,,,ben,001,2025-08-14_14h57.00.346,tilt_staircase,2024.2.4,None,2025-08-14 14h57.08.782654 -0700,
,,,,,,,,,,,,,,,,,,,,,,,237.98509137507062,,,,,,,,,,,,,,,,,,,,,,,,,,,,,,,,,,,,,,,,,,,,,,,,,,,,,,,,,,,,,,negc_poss,30,-15,15,-15,"[5, 2, 1, 0.5, 0.25, 0.1]",lin,1,1,7,2,23,135,up,0.1,0.7499999999999999,0.7499999999999999,30,237.9775840420043,237.98509137507062,237.98509137507062,238.47430987504777,238.47430987504777,238.54646145901643,238.54646145901643,238.54646145901643,238.47925641702022,239.35281870898325,0,,,,,,,,ben,001,2025-08-14_14h57.00.346,tilt_staircase,2024.2.4,None,2025-08-14 14h57.08.782654 -0700,
,,,,,,,,,,,,,,,,,,,,,,,239.35798116703518,,,,,,,,,,,,,,,,,,,,,,,,,,,,,,,,,,,,,,,,,,,,,,,,,,,,,,,,,,,,,,negc_negs,30,-15,15,-15,"[5, 2, 1, 0.5, 0.25, 0.1]",lin,1,1,7,0,23,136,up,0.1,-2.4500000000000006,-2.4500000000000006,-30,239.35328520904295,239.35798116703518,239.35798116703518,239.8495010000188,239.8495010000188,239.93115879199468,239.92513979203068,239.92513979203068,239.8495010000188,240.7647032920504,0,,,,,,,,ben,001,2025-08-14_14h57.00.346,tilt_staircase,2024.2.4,None,2025-08-14 14h57.08.782654 -0700,
,,,,,,,,,,,,,,,,,,,,,,,240.77030225005,,,,,,,,,,,,,,,,,,,,,,,,,,,,,,,,,,,,,,,,,,,,,,,,,,,,,,,,,,,,,,negc_noss,30,-15,15,-15,"[5, 2, 1, 0.5, 0.25, 0.1]",lin,1,1,7,4,23,137,up,0.1,-0.15,-0.15,,240.76512237498537,240.77030225005,240.77030225005,241.25694654206745,241.25694654206745,241.34186208399478,241.33060245902743,241.33060245902743,241.26187525002751,241.93449858401436,1,,,,,,,,ben,001,2025-08-14_14h57.00.346,tilt_staircase,2024.2.4,None,2025-08-14 14h57.08.782654 -0700,
,,,,,,,,,,,,,,,,,,,,,,,241.94033591705374,,,,,,,,,,,,,,,,,,,,,,,,,,,,,,,,,,,,,,,,,,,,,,,,,,,,,,,,,,,,,,negc_noss,30,-15,15,-15,"[5, 2, 1, 0.5, 0.25, 0.1]",lin,1,1,7,4,24,138,down,0.1,-0.25,-0.25,,241.93496454204433,241.94033591705374,241.94033591705374,242.431010875036,242.431010875036,242.52410079201218,242.52410079201218,242.52410079201218,242.431010875036,243.31322583404835,1,,,,,,,,ben,001,2025-08-14_14h57.00.346,tilt_staircase,2024.2.4,None,2025-08-14 14h57.08.782654 -0700,
,,,,,,,,,,,,,,,,,,,,,,,243.32370499998797,,,,,,,,,,,,,,,,,,,,,,,,,,,,,,,,,,,,,,,,,,,,,,,,,,,,,,,,,,,,,,negc_poss,30,-15,15,-15,"[5, 2, 1, 0.5, 0.25, 0.1]",lin,1,1,7,2,24,139,up,0.1,0.8499999999999999,0.8499999999999999,30,243.3134897920536,243.32370499998797,243.32370499998797,243.807025584043,243.807025584043,243.8918714170577,243.87933779205196,243.87933779205196,243.81177379202563,244.60298725008033,1,,,,,,,,ben,001,2025-08-14_14h57.00.346,tilt_staircase,2024.2.4,None,2025-08-14 14h57.08.782654 -0700,
,,,,,,,,,,,,,,,,,,,,,,,244.6080803340301,,,,,,,,,,,,,,,,,,,,,,,,,,,,,,,,,,,,,,,,,,,,,,,,,,,,,,,,,,,,,,posc_poss,30,15,15,-15,"[5, 2, 1, 0.5, 0.25, 0.1]",lin,1,1,7,3,24,140,up,0.1,2.2499999999999996,2.2499999999999996,30,244.60342758405022,244.6080803340301,244.6080803340301,245.09957058401778,245.09957058401778,245.1815175000811,245.1750648340676,245.1750648340676,245.09957058401778,245.99467550008558,1,,,,,,,,ben,001,2025-08-14_14h57.00.346,tilt_staircase,2024.2.4,None,2025-08-14 14h57.08.782654 -0700,
,,,,,,,,,,,,,,,,,,,,,,,246.0025535840541,,,,,,,,,,,,,,,,,,,,,,,,,,,,,,,,,,,,,,,,,,,,,,,,,,,,,,,,,,,,,,posc_noss,30,15,15,-15,"[5, 2, 1, 0.5, 0.25, 0.1]",lin,1,1,7,5,24,141,up,0.1,-0.9500000000000001,-0.9500000000000001,,245.9951957090525,246.0025535840541,246.0025535840541,246.4902079590829,246.4902079590829,246.56448779208586,246.56448779208586,246.56448779208586,246.49512629199307,247.1688679170329,1,,,,,,,,ben,001,2025-08-14_14h57.00.346,tilt_staircase,2024.2.4,None,2025-08-14 14h57.08.782654 -0700,
,,,,,,,,,,,,,,,,,,,,,,,247.17424970900174,,,,,,,,,,,,,,,,,,,,,,,,,,,,,,,,,,,,,,,,,,,,,,,,,,,,,,,,,,,,,,posc_negs,30,15,15,-15,"[5, 2, 1, 0.5, 0.25, 0.1]",lin,1,1,7,1,24,142,up,0.1,-2.25,-2.25,-30,247.16931850009132,247.17424970900174,247.17424970900174,247.66561162506696,247.66561162506696,247.74187316698954,247.74187316698954,247.74187316698954,247.66561162506696,248.79146770900115,1,,,,,,,,ben,001,2025-08-14_14h57.00.346,tilt_staircase,2024.2.4,None,2025-08-14 14h57.08.782654 -0700,
,,,,,,,,,,,,,,,,,,,,,,,248.79631270898972,,,,,,,,,,,,,,,,,,,,,,,,,,,,,,,,,,,,,,,,,,,,,,,,,,,,,,,,,,,,,,negc_negs,30,-15,15,-15,"[5, 2, 1, 0.5, 0.25, 0.1]",lin,1,1,7,0,24,143,up,0.1,-2.3500000000000005,-2.3500000000000005,-30,248.79170362500008,248.79631270898972,248.79631270898972,249.28453354199883,249.28453354199883,249.36406179203186,249.35834162507672,249.35834162507672,249.29140383400954,249.8770075000357,0,,,,,,,,ben,001,2025-08-14_14h57.00.346,tilt_staircase,2024.2.4,None,2025-08-14 14h57.08.782654 -0700,
,,,,,,,,,,,,,,,,,,,,,,,249.8851723750122,,,,,,,,,,,,,,,,,,,,,,,,,,,,,,,,,,,,,,,,,,,,,,,,,,,,,,,,,,,,,,negc_negs,30,-15,15,-15,"[5, 2, 1, 0.5, 0.25, 0.1]",lin,1,1,7,0,25,144,up,0.1,-2.2500000000000004,-2.2500000000000004,-30,249.87779391708318,249.8851723750122,249.8851723750122,250.37407045904547,250.37407045904547,250.4480897920439,250.4480897920439,250.4480897920439,250.37892737507354,251.19844112498686,0,,,,,,,,ben,001,2025-08-14_14h57.00.346,tilt_staircase,2024.2.4,None,2025-08-14 14h57.08.782654 -0700,
,,,,,,,,,,,,,,,,,,,,,,,251.20712945901323,,,,,,,,,,,,,,,,,,,,,,,,,,,,,,,,,,,,,,,,,,,,,,,,,,,,,,,,,,,,,,negc_poss,30,-15,15,-15,"[5, 2, 1, 0.5, 0.25, 0.1]",lin,1,1,7,2,25,145,down,0.1,0.7499999999999999,0.7499999999999999,30,251.19869087508414,251.20712945901323,251.20712945901323,251.6995855839923,251.6995855839923,251.77440937503707,251.77982658403926,251.77982658403926,251.6995855839923,252.76075220899656,0,,,,,,,,ben,001,2025-08-14_14h57.00.346,tilt_staircase,2024.2.4,None,2025-08-14 14h57.08.782654 -0700,
,,,,,,,,,,,,,,,,,,,,,,,252.77005450008437,,,,,,,,,,,,,,,,,,,,,,,,,,,,,,,,,,,,,,,,,,,,,,,,,,,,,,,,,,,,,,negc_noss,30,-15,15,-15,"[5, 2, 1, 0.5, 0.25, 0.1]",lin,1,1,7,4,25,146,down,0.1,-0.35,-0.35,,252.76192670909222,252.77005450008437,252.77005450008437,253.257722459035,253.257722459035,253.33128516701981,253.33128516701981,253.33128516701981,253.26256991701666,254.05974395899102,0,,,,,,,,ben,001,2025-08-14_14h57.00.346,tilt_staircase,2024.2.4,None,2025-08-14 14h57.08.782654 -0700,
,,,,,,,,,,,,,,,,,,,,,,,254.0668918750016,,,,,,,,,,,,,,,,,,,,,,,,,,,,,,,,,,,,,,,,,,,,,,,,,,,,,,,,,,,,,,posc_noss,30,15,15,-15,"[5, 2, 1, 0.5, 0.25, 0.1]",lin,1,1,7,5,25,147,down,0.1,-1.05,-1.05,,254.06024541705847,254.0668918750016,254.0668918750016,254.55680433404632,254.55680433404632,254.63108541700058,254.63108541700058,254.63108541700058,254.56260991701856,255.14310420898255,0,,,,,,,,ben,001,2025-08-14_14h57.00.346,tilt_staircase,2024.2.4,None,2025-08-14 14h57.08.782654 -0700,
,,,,,,,,,,,,,,,,,,,,,,,255.15098124998622,,,,,,,,,,,,,,,,,,,,,,,,,,,,,,,,,,,,,,,,,,,,,,,,,,,,,,,,,,,,,,posc_poss,30,15,15,-15,"[5, 2, 1, 0.5, 0.25, 0.1]",lin,1,1,7,3,25,148,down,0.1,2.1499999999999995,2.1499999999999995,30,255.14365995908156,255.15098124998622,255.15098124998622,255.64158204209525,255.64158204209525,255.71420841699,255.71420841699,255.71420841699,255.6478768340312,256.6091430420056,1,,,,,,,,ben,001,2025-08-14_14h57.00.346,tilt_staircase,2024.2.4,None,2025-08-14 14h57.08.782654 -0700,
,,,,,,,,,,,,,,,,,,,,,,,256.6146331250202,,,,,,,,,,,,,,,,,,,,,,,,,,,,,,,,,,,,,,,,,,,,,,,,,,,,,,,,,,,,,,posc_negs,30,15,15,-15,"[5, 2, 1, 0.5, 0.25, 0.1]",lin,1,1,7,1,25,149,down,0.1,-2.35,-2.35,-30,256.60975645901635,256.6146331250202,256.6146331250202,257.10711312503554,257.10711312503554,257.17727212503087,257.17727212503087,257.17727212503087,257.1127866250463,257.8825263340259,0,,,,,,,,ben,001,2025-08-14_14h57.00.346,tilt_staircase,2024.2.4,None,2025-08-14 14h57.08.782654 -0700,
,,,,,,,,,,,,,,,,,,,,,,,,,,,,,,,,,,,,,,,,,,,,,,,,,,,,,,,,,,,,,,,,,,,,,,,,,,,,,,,,,,,,,,,,,,,,,,,,,,,,,,,,,,,,,,,,,,257.88264904206153,257.89368929201737,257.89368929201737,267.9103172920877,space,10.011553584015928,None,ben,001,2025-08-14_14h57.00.346,tilt_staircase,2024.2.4,None,2025-08-14 14h57.08.782654 -0700,
