center,surround,correct,thisN,thisTrialN,thisRepN,key_resp_3.keys,key_resp_3.corr,key_resp_3.rt,key_resp_3.duration,opacity,key_resp_4.keys,key_resp_4.corr,key_resp_4.rt,key_resp_4.duration,practice_no_time.thisRepN,practice_no_time.thisTrialN,practice_no_time.thisN,practice_no_time.thisIndex,practice_timed.thisRepN,practice_timed.thisTrialN,practice_timed.thisN,practice_timed.thisIndex,blocks.thisRepN,blocks.thisTrialN,blocks.thisN,blocks.thisIndex,thisRow.t,notes,instr.started,text_5.started,key_resp_2.started,instr.stopped,key_resp_2.keys,key_resp_2.rt,key_resp_2.duration,instr2.started,text_6.started,key_resp_6.started,instr2.stopped,key_resp_6.keys,key_resp_6.rt,key_resp_6.duration,test.started,surround_practice_3.started,center_practice_3.started,key_resp_7.started,test.stopped,key_resp_7.keys,key_resp_7.rt,key_resp_7.duration,practice_trial.started,key_resp_3.started,surround_practice.started,center_practice.started,surround_practice.stopped,center_practice.stopped,text_11.started,practice_trial.stopped,practice_no_time.key_resp_3.keys,practice_no_time.key_resp_3.corr,practice_no_time.key_resp_3.rt,practice_no_time.key_resp_3.duration,practice_feedback.started,text_7.started,text_7.stopped,practice_feedback.stopped,instr3.started,text_8.started,key_resp_5.started,instr3.stopped,key_resp_5.keys,key_resp_5.rt,key_resp_5.duration,practice_trial_timed.started,key_resp_4.started,surround_practice_2.started,center_practice_2.started,text_12.started,surround_practice_2.stopped,center_practice_2.stopped,practice_trial_timed.stopped,practice_timed.key_resp_4.keys,practice_timed.key_resp_4.corr,practice_timed.key_resp_4.rt,practice_timed.key_resp_4.duration,start_instr.started,text_13.started,key_resp_8.started,start_instr.stopped,key_resp_8.keys,key_resp_8.rt,key_resp_8.duration,trials.label,trials.nReps,trials.startVal,trials.maxVal,trials.minVal,trials.stepSizes,trials.stepType,trials.nUp,trials.nDown,trials.nReversals,trials.thisIndex,trials.thisRepN,trials.thisN,trials.direction,trials.stepSize,trials.intensity,center_angle,trial.started,resp.started,surround_grating.started,center_grating.started,surround_grating.stopped,center_grating.stopped,text_3.started,trial.stopped,trials.response,surround_angle,break_2.started,text_14.started,key_resp_9.started,break_2.stopped,blocks.key_resp_9.keys,blocks.key_resp_9.rt,blocks.key_resp_9.duration,end.started,text_4.started,key_resp.started,end.stopped,key_resp.keys,key_resp.rt,key_resp.duration,participant,session,date,expName,psychopyVersion,frameRate,expStart,
,,,,,,,,,,,,,,,,,,,,,,,,,,,,,0.010810374980792403,0.017286999966017902,0.017286999966017902,23.61605704203248,space,23.540329958079383,None,,,,,,,,,,,,,,,,,,,,,,,,,,,,,,,,,,,,,,,,,,,,,,,,,,,,,,,,,,,,,,,,,,,,,,,,,,,,,,,,,,,,,,,,,,,,,,,,,,,brian2,001,2025-08-18_14h47.11.180,tilt_staircase,2024.2.4,None,2025-08-18 14h47.22.881091 -0400,
,,,,,,,,,,,,,,,,,,,,,,,,,,,,,,,,,,,,23.61630954197608,23.63820237503387,23.63820237503387,24.806404166971333,space,1.1630752499913797,None,,,,,,,,,,,,,,,,,,,,,,,,,,,,,,,,,,,,,,,,,,,,,,,,,,,,,,,,,,,,,,,,,,,,,,,,,,,,,,,,,,,,,,,,,,,,brian2,001,2025-08-18_14h47.11.180,tilt_staircase,2024.2.4,None,2025-08-18 14h47.22.881091 -0400,
,,,,,,,,,,,,,,,,,,,,,,,,,,,,,,,,,,,,,,,,,,,24.80695812497288,24.82028404204175,24.82028404204175,24.82028404204175,26.29537587496452,right,1.4708050419576466,None,,,,,,,,,,,,,,,,,,,,,,,,,,,,,,,,,,,,,,,,,,,,,,,,,,,,,,,,,,,,,,,,,,,,,,,,,,,,,,,,,,,,brian2,001,2025-08-18_14h47.11.180,tilt_staircase,2024.2.4,None,2025-08-18 14h47.22.881091 -0400,
30,0,right,0,0,0,right,1,1.4325829590670764,None,,,,,,0,0,0,0,,,,,,,,,26.388002541963942,,,,,,,,,,,,,,,,,,,,,,,,26.323693457990885,26.388002541963942,26.798263582983054,26.798263582983054,27.795602667029016,27.795602667029016,27.795602667029016,27.82327279204037,right,1,1.4325829590670764,None,27.82909108302556,27.838738374994136,29.329911125008948,29.323466666974127,,,,,,,,,,,,,,,,,,,,,,,,,,,,,,,,,,,,,,,,,,,,,,,,,,,,,,,,,,,,,,,,,,,,brian2,001,2025-08-18_14h47.11.180,tilt_staircase,2024.2.4,None,2025-08-18 14h47.22.881091 -0400,
-30,0,left,1,1,0,left,1,0.9762906669639051,None,,,,,,0,1,1,1,,,,,,,,,29.329911125008948,,,,,,,,,,,,,,,,,,,,,,,,29.32471658301074,29.329911125008948,29.820917667006142,29.820917667006142,,,,30.31225858302787,left,1,0.9762906669639051,None,30.31236587499734,30.32057704194449,31.811337708029896,31.8058314579539,,,,,,,,,,,,,,,,,,,,,,,,,,,,,,,,,,,,,,,,,,,,,,,,,,,,,,,,,,,,,,,,,,,,brian2,001,2025-08-18_14h47.11.180,tilt_staircase,2024.2.4,None,2025-08-18 14h47.22.881091 -0400,
30,60,right,2,2,0,right,1,0.9474960420047864,None,,,,,,0,2,2,2,,,,,,,,,31.811337708029896,,,,,,,,,,,,,,,,,,,,,,,,31.806863000034355,31.811337708029896,32.31418629200198,32.31418629200198,,,,32.762684707995504,right,1,0.9474960420047864,None,32.76279258297291,32.77071441698354,34.26000012503937,34.254843208007514,,,,,,,,,,,,,,,,,,,,,,,,,,,,,,,,,,,,,,,,,,,,,,,,,,,,,,,,,,,,,,,,,,,,brian2,001,2025-08-18_14h47.11.180,tilt_staircase,2024.2.4,None,2025-08-18 14h47.22.881091 -0400,
-30,-60,left,3,3,0,left,1,0.9012062499532476,None,,,,,,0,3,3,3,,,,,,,,,34.26000012503937,,,,,,,,,,,,,,,,,,,,,,,,34.25617670803331,34.26000012503937,34.76187899999786,34.76187899999786,,,,35.17297095793765,left,1,0.9012062499532476,None,35.17310675000772,35.17977449996397,36.67916354199406,36.672151707927696,,,,,,,,,,,,,,,,,,,,,,,,,,,,,,,,,,,,,,,,,,,,,,,,,,,,,,,,,,,,,,,,,,,,brian2,001,2025-08-18_14h47.11.180,tilt_staircase,2024.2.4,None,2025-08-18 14h47.22.881091 -0400,
,,,,,,,,,,,,,,,,,,,,,,,,,,,,,,,,,,,,,,,,,,,,,,,,,,,,,,,,,,,,,,,,,,,36.67248924996238,36.67916354199406,36.67916354199406,37.82953483297024,space,1.1481972499750555,None,,,,,,,,,,,,,,,,,,,,,,,,,,,,,,,,,,,,,,,,,,,,,,,,,,,,,,,,,,,,,brian2,001,2025-08-18_14h47.11.180,tilt_staircase,2024.2.4,None,2025-08-18 14h47.22.881091 -0400,
-30,-60,left,0,0,0,,,,,100,left,1,1.0225937499199063,None,,,,,0,0,0,0,,,,,37.85642937500961,,,,,,,,,,,,,,,,,,,,,,,,,,,,,,,,,,,,38.89046429202426,38.89794787496794,40.395256708026864,40.38963045796845,,,,,,,,37.848087708000094,37.85642937500961,38.33699483296368,38.33699483296368,38.405081624980085,38.40929983300157,38.40929983300157,38.8902915000217,left,1,1.0225937499199063,None,,,,,,,,,,,,,,,,,,,,,,,,,,,,,,,,,,,,,,,,,,,,,,,,,brian2,001,2025-08-18_14h47.11.180,tilt_staircase,2024.2.4,None,2025-08-18 14h47.22.881091 -0400,
-30,0,left,1,1,0,,,,,100,left,1,0.8729295410448685,None,,,,,0,1,1,1,,,,,40.395256708026864,,,,,,,,,,,,,,,,,,,,,,,,,,,,,,,,,,,,41.27340591698885,41.28040487493854,42.77829145803116,42.772778082988225,,,,,,,,40.39024308300577,40.395256708026864,40.88717095798347,40.88717095798347,40.961752958013676,40.961752958013676,40.961752958013676,41.273288832977414,left,1,0.8729295410448685,None,,,,,,,,,,,,,,,,,,,,,,,,,,,,,,,,,,,,,,,,,,,,,,,,,brian2,001,2025-08-18_14h47.11.180,tilt_staircase,2024.2.4,None,2025-08-18 14h47.22.881091 -0400,
30,60,right,2,2,0,,,,,100,right,1,0.8344784580403939,None,,,,,0,2,2,2,,,,,42.77829145803116,,,,,,,,,,,,,,,,,,,,,,,,,,,,,,,,,,,,43.624663583002985,43.6316207080381,45.126332291984,45.1218349999981,,,,,,,,42.77333379199263,42.77829145803116,43.27080133301206,43.27080133301206,43.34289979201276,43.34289979201276,43.34289979201276,43.624562000040896,right,1,0.8344784580403939,None,,,,,,,,,,,,,,,,,,,,,,,,,,,,,,,,,,,,,,,,,,,,,,,,,brian2,001,2025-08-18_14h47.11.180,tilt_staircase,2024.2.4,None,2025-08-18 14h47.22.881091 -0400,
30,0,right,3,3,0,,,,,100,right,1,0.8533419580198824,None,,,,,0,3,3,3,,,,,45.126332291984,,,,,,,,,,,,,,,,,,,,,,,,,,,,,,,,,,,,45.990896375034936,45.998861207976006,47.49475683295168,47.489226249977946,,,,,,,,45.12244691699743,45.126332291984,45.621436666930094,45.621436666930094,45.69250787503552,45.69250787503552,45.69250787503552,45.99065670801792,right,1,0.8533419580198824,None,,,,,,,,,,,,,,,,,,,,,,,,,,,,,,,,,,,,,,,,,,,,,,,,,brian2,001,2025-08-18_14h47.11.180,tilt_staircase,2024.2.4,None,2025-08-18 14h47.22.881091 -0400,
-30,69,left,4,4,0,,,,,0,left,1,0.8619070840068161,None,,,,,0,4,4,4,,,,,47.49475683295168,,,,,,,,,,,,,,,,,,,,,,,,,,,,,,,,,,,,48.3626420419896,48.370436375029385,49.86080837494228,49.85573079204187,,,,,,,,47.489829541998915,47.49475683295168,47.98827245796565,47.98827245796565,48.06118566694204,48.06118566694204,48.06118566694204,48.36252079193946,left,1,0.8619070840068161,None,,,,,,,,,,,,,,,,,,,,,,,,,,,,,,,,,,,,,,,,,,,,,,,,,brian2,001,2025-08-18_14h47.11.180,tilt_staircase,2024.2.4,None,2025-08-18 14h47.22.881091 -0400,
30,69,right,5,5,0,,,,,0,right,1,0.8120522910030559,None,,,,,0,5,5,5,,,,,49.86080837494228,,,,,,,,,,,,,,,,,,,,,,,,,,,,,,,,,,,,50.68181337497663,50.68712483299896,52.181593416957185,52.17256570793688,,,,,,,,49.856299333041534,49.86080837494228,50.36433487501927,50.36433487501927,50.43822333298158,50.43822333298158,50.43822333298158,50.68170574994292,right,1,0.8120522910030559,None,,,,,,,,,,,,,,,,,,,,,,,,,,,,,,,,,,,,,,,,,,,,,,,,,brian2,001,2025-08-18_14h47.11.180,tilt_staircase,2024.2.4,None,2025-08-18 14h47.22.881091 -0400,
,,,,,,,,,,,,,,,,,,,,,,,,,,,,,,,,,,,,,,,,,,,,,,,,,,,,,,,,,,,,,,,,,,,,,,,,,,,,,,,,,,,,,,52.172761583002284,52.181593416957185,52.181593416957185,59.674488416989334,space,7.481227041920647,None,,,,,,,,,,,,,,,,,,,,,,,,,,,,,,,,,,,,,,,,,,brian2,001,2025-08-18_14h47.11.180,tilt_staircase,2024.2.4,None,2025-08-18 14h47.22.881091 -0400,
,,,0,0,0,,,,,,,,,,,,,,,,,,0,0,0,0,59.82181808294263,,,,,,,,,,,,,,,,,,,,,,,,,,,,,,,,,,,,,,,,,,,,,,,,,,,,,,,,,,,,,,,,,,posc_noss,30,15,15,-15,"[5, 2, 1, 0.5]",lin,1,1,8,5,1,0,start,5,15,15,59.81508833297994,59.82181808294263,60.17136899998877,60.17136899998877,60.244852417032234,60.244852417032234,60.244852417032234,60.628290500026196,1,,,,,,,,,,,,,,,,brian2,001,2025-08-18_14h47.11.180,tilt_staircase,2024.2.4,None,2025-08-18 14h47.22.881091 -0400,
,,,0,0,0,,,,,,,,,,,,,,,,,,0,0,0,0,60.63716675003525,,,,,,,,,,,,,,,,,,,,,,,,,,,,,,,,,,,,,,,,,,,,,,,,,,,,,,,,,,,,,,,,,,negc_poss,30,-15,15,-15,"[5, 2, 1, 0.5]",lin,1,1,8,2,1,1,start,5,-15,-15,60.62933737493586,60.63716675003525,61.121109707979485,61.121109707979485,61.19311279198155,61.19311279198155,61.20509008294903,61.49609937495552,0,30,,,,,,,,,,,,,,,brian2,001,2025-08-18_14h47.11.180,tilt_staircase,2024.2.4,None,2025-08-18 14h47.22.881091 -0400,
,,,0,0,0,,,,,,,,,,,,,,,,,,0,0,0,0,61.50454145797994,,,,,,,,,,,,,,,,,,,,,,,,,,,,,,,,,,,,,,,,,,,,,,,,,,,,,,,,,,,,,,,,,,posc_negs,30,15,15,-15,"[5, 2, 1, 0.5]",lin,1,1,8,1,1,2,start,5,15,15,61.497214082977735,61.50454145797994,61.99674704193603,61.99674704193603,62.07180520799011,62.07180520799011,62.07180520799011,62.37989187496714,1,-30,,,,,,,,,,,,,,,brian2,001,2025-08-18_14h47.11.180,tilt_staircase,2024.2.4,None,2025-08-18 14h47.22.881091 -0400,
,,,0,0,0,,,,,,,,,,,,,,,,,,0,0,0,0,62.387813332956284,,,,,,,,,,,,,,,,,,,,,,,,,,,,,,,,,,,,,,,,,,,,,,,,,,,,,,,,,,,,,,,,,,negc_negs,30,-15,15,-15,"[5, 2, 1, 0.5]",lin,1,1,8,0,1,3,start,5,-15,-15,62.38104224996641,62.387813332956284,62.8798235419672,62.8798235419672,62.954991917009465,62.954991917009465,62.954991917009465,63.2571399169974,0,-30,,,,,,,,,,,,,,,brian2,001,2025-08-18_14h47.11.180,tilt_staircase,2024.2.4,None,2025-08-18 14h47.22.881091 -0400,
,,,0,0,0,,,,,,,,,,,,,,,,,,0,0,0,0,63.26491425000131,,,,,,,,,,,,,,,,,,,,,,,,,,,,,,,,,,,,,,,,,,,,,,,,,,,,,,,,,,,,,,,,,,posc_poss,30,15,15,-15,"[5, 2, 1, 0.5]",lin,1,1,8,3,1,4,start,5,15,15,63.25822887499817,63.26491425000131,63.75471862498671,63.75471862498671,63.82547074998729,63.82547074998729,63.82547074998729,64.11121358303353,1,30,,,,,,,,,,,,,,,brian2,001,2025-08-18_14h47.11.180,tilt_staircase,2024.2.4,None,2025-08-18 14h47.22.881091 -0400,
,,,0,0,0,,,,,,,,,,,,,,,,,,0,0,0,0,64.12042533303611,,,,,,,,,,,,,,,,,,,,,,,,,,,,,,,,,,,,,,,,,,,,,,,,,,,,,,,,,,,,,,,,,,negc_noss,30,-15,15,-15,"[5, 2, 1, 0.5]",lin,1,1,8,4,1,5,start,5,-15,-15,64.1122473749565,64.12042533303611,64.61273395793978,64.61273395793978,64.6887191249989,64.6887191249989,64.6887191249989,64.97354491695296,0,,,,,,,,,,,,,,,,brian2,001,2025-08-18_14h47.11.180,tilt_staircase,2024.2.4,None,2025-08-18 14h47.22.881091 -0400,
,,,0,0,0,,,,,,,,,,,,,,,,,,0,0,0,0,64.9812049169559,,,,,,,,,,,,,,,,,,,,,,,,,,,,,,,,,,,,,,,,,,,,,,,,,,,,,,,,,,,,,,,,,,posc_noss,30,15,15,-15,"[5, 2, 1, 0.5]",lin,1,1,8,5,2,6,down,5,10,10,64.97469362500124,64.9812049169559,65.47093054198194,65.47093054198194,65.54390012496151,65.54390012496151,65.54390012496151,65.7951194170164,1,,,,,,,,,,,,,,,,brian2,001,2025-08-18_14h47.11.180,tilt_staircase,2024.2.4,None,2025-08-18 14h47.22.881091 -0400,
,,,0,0,0,,,,,,,,,,,,,,,,,,0,0,0,0,65.80372716696002,,,,,,,,,,,,,,,,,,,,,,,,,,,,,,,,,,,,,,,,,,,,,,,,,,,,,,,,,,,,,,,,,,negc_noss,30,-15,15,-15,"[5, 2, 1, 0.5]",lin,1,1,8,4,2,7,up,5,-10,-10,65.79614762496203,65.80372716696002,66.29641112498939,66.29641112498939,66.37163262499962,66.37163262499962,66.37163262499962,66.67287137499079,0,,,,,,,,,,,,,,,,brian2,001,2025-08-18_14h47.11.180,tilt_staircase,2024.2.4,None,2025-08-18 14h47.22.881091 -0400,
,,,0,0,0,,,,,,,,,,,,,,,,,,0,0,0,0,66.68014624994248,,,,,,,,,,,,,,,,,,,,,,,,,,,,,,,,,,,,,,,,,,,,,,,,,,,,,,,,,,,,,,,,,,negc_poss,30,-15,15,-15,"[5, 2, 1, 0.5]",lin,1,1,8,2,2,8,up,5,-10,-10,66.67381808301434,66.68014624994248,67.17176283302251,67.17176283302251,67.24475504201837,67.24475504201837,67.24475504201837,67.6274029170163,0,30,,,,,,,,,,,,,,,brian2,001,2025-08-18_14h47.11.180,tilt_staircase,2024.2.4,None,2025-08-18 14h47.22.881091 -0400,
,,,0,0,0,,,,,,,,,,,,,,,,,,0,0,0,0,67.63733275001869,,,,,,,,,,,,,,,,,,,,,,,,,,,,,,,,,,,,,,,,,,,,,,,,,,,,,,,,,,,,,,,,,,posc_negs,30,15,15,-15,"[5, 2, 1, 0.5]",lin,1,1,8,1,2,9,down,5,10,10,67.62838158302475,67.63733275001869,68.12057770800311,68.12057770800311,68.19332633295562,68.19332633295562,68.20483279193286,68.5406489999732,1,-30,,,,,,,,,,,,,,,brian2,001,2025-08-18_14h47.11.180,tilt_staircase,2024.2.4,None,2025-08-18 14h47.22.881091 -0400,
,,,0,0,0,,,,,,,,,,,,,,,,,,0,0,0,0,68.54878587496933,,,,,,,,,,,,,,,,,,,,,,,,,,,,,,,,,,,,,,,,,,,,,,,,,,,,,,,,,,,,,,,,,,negc_negs,30,-15,15,-15,"[5, 2, 1, 0.5]",lin,1,1,8,0,2,10,up,5,-10,-10,68.54222383303568,68.54878587496933,69.0381050419528,69.0381050419528,69.1105477079982,69.1105477079982,69.1105477079982,69.71036595792975,0,-30,,,,,,,,,,,,,,,brian2,001,2025-08-18_14h47.11.180,tilt_staircase,2024.2.4,None,2025-08-18 14h47.22.881091 -0400,
,,,0,0,0,,,,,,,,,,,,,,,,,,0,0,0,0,69.72119204199407,,,,,,,,,,,,,,,,,,,,,,,,,,,,,,,,,,,,,,,,,,,,,,,,,,,,,,,,,,,,,,,,,,posc_poss,30,15,15,-15,"[5, 2, 1, 0.5]",lin,1,1,8,3,2,11,down,5,10,10,69.71132866700646,69.72119204199407,70.20393658301327,70.20393658301327,70.2772272080183,70.2772272080183,70.28830783301964,70.5799632499693,1,30,,,,,,,,,,,,,,,brian2,001,2025-08-18_14h47.11.180,tilt_staircase,2024.2.4,None,2025-08-18 14h47.22.881091 -0400,
,,,0,0,0,,,,,,,,,,,,,,,,,,0,0,0,0,70.58778608299326,,,,,,,,,,,,,,,,,,,,,,,,,,,,,,,,,,,,,,,,,,,,,,,,,,,,,,,,,,,,,,,,,,negc_poss,30,-15,15,-15,"[5, 2, 1, 0.5]",lin,1,1,8,2,3,12,up,5,-5,-5,70.58117762499023,70.58778608299326,71.07715720799752,71.07715720799752,71.15926624997519,71.15926624997519,71.15926624997519,71.49521862494294,0,30,,,,,,,,,,,,,,,brian2,001,2025-08-18_14h47.11.180,tilt_staircase,2024.2.4,None,2025-08-18 14h47.22.881091 -0400,
,,,0,0,0,,,,,,,,,,,,,,,,,,0,0,0,0,71.50365895801224,,,,,,,,,,,,,,,,,,,,,,,,,,,,,,,,,,,,,,,,,,,,,,,,,,,,,,,,,,,,,,,,,,posc_negs,30,15,15,-15,"[5, 2, 1, 0.5]",lin,1,1,8,1,3,13,down,5,5,5,71.49637258297298,71.50365895801224,71.99425679200795,71.99425679200795,72.07145537494216,72.07145537494216,72.07145537494216,72.40753770794254,1,-30,,,,,,,,,,,,,,,brian2,001,2025-08-18_14h47.11.180,tilt_staircase,2024.2.4,None,2025-08-18 14h47.22.881091 -0400,
,,,0,0,0,,,,,,,,,,,,,,,,,,0,0,0,0,72.41614270803984,,,,,,,,,,,,,,,,,,,,,,,,,,,,,,,,,,,,,,,,,,,,,,,,,,,,,,,,,,,,,,,,,,posc_poss,30,15,15,-15,"[5, 2, 1, 0.5]",lin,1,1,8,3,3,14,down,5,5,5,72.40937204193324,72.41614270803984,72.903932416928,72.903932416928,72.97678675001953,72.97678675001953,72.97678675001953,73.49843391694594,1,30,,,,,,,,,,,,,,,brian2,001,2025-08-18_14h47.11.180,tilt_staircase,2024.2.4,None,2025-08-18 14h47.22.881091 -0400,
,,,0,0,0,,,,,,,,,,,,,,,,,,0,0,0,0,73.50384437502362,,,,,,,,,,,,,,,,,,,,,,,,,,,,,,,,,,,,,,,,,,,,,,,,,,,,,,,,,,,,,,,,,,posc_noss,30,15,15,-15,"[5, 2, 1, 0.5]",lin,1,1,8,5,3,15,down,5,5,5,73.49948250001762,73.50384437502362,73.99646679195575,73.99646679195575,74.07140258303843,74.07140258303843,74.07733787503093,74.42356587504037,1,,,,,,,,,,,,,,,,brian2,001,2025-08-18_14h47.11.180,tilt_staircase,2024.2.4,None,2025-08-18 14h47.22.881091 -0400,
,,,0,0,0,,,,,,,,,,,,,,,,,,0,0,0,0,74.43111870798748,,,,,,,,,,,,,,,,,,,,,,,,,,,,,,,,,,,,,,,,,,,,,,,,,,,,,,,,,,,,,,,,,,negc_noss,30,-15,15,-15,"[5, 2, 1, 0.5]",lin,1,1,8,4,3,16,up,5,-5,-5,74.42457845795434,74.43111870798748,74.92150816693902,74.92150816693902,74.99428491701838,74.99428491701838,74.99428491701838,75.34058129193727,0,,,,,,,,,,,,,,,,brian2,001,2025-08-18_14h47.11.180,tilt_staircase,2024.2.4,None,2025-08-18 14h47.22.881091 -0400,
,,,0,0,0,,,,,,,,,,,,,,,,,,0,0,0,0,75.34855091699865,,,,,,,,,,,,,,,,,,,,,,,,,,,,,,,,,,,,,,,,,,,,,,,,,,,,,,,,,,,,,,,,,,negc_negs,30,-15,15,-15,"[5, 2, 1, 0.5]",lin,1,1,8,0,3,17,up,5,-5,-5,75.34198762499727,75.34855091699865,75.83722145797219,75.83722145797219,75.91043312498368,75.91043312498368,75.91043312498368,76.4768096669577,0,-30,,,,,,,,,,,,,,,brian2,001,2025-08-18_14h47.11.180,tilt_staircase,2024.2.4,None,2025-08-18 14h47.22.881091 -0400,
,,,0,0,0,,,,,,,,,,,,,,,,,,0,0,0,0,76.4879107499728,,,,,,,,,,,,,,,,,,,,,,,,,,,,,,,,,,,,,,,,,,,,,,,,,,,,,,,,,,,,,,,,,,posc_negs,30,15,15,-15,"[5, 2, 1, 0.5]",lin,1,1,8,1,4,18,down,5,0,0,76.47760433296207,76.4879107499728,76.9704380419571,76.9704380419571,77.04445779195521,77.04445779195521,77.0548896669643,77.41198062500916,1,-30,,,,,,,,,,,,,,,brian2,001,2025-08-18_14h47.11.180,tilt_staircase,2024.2.4,None,2025-08-18 14h47.22.881091 -0400,
,,,0,0,0,,,,,,,,,,,,,,,,,,0,0,0,0,77.42049879196566,,,,,,,,,,,,,,,,,,,,,,,,,,,,,,,,,,,,,,,,,,,,,,,,,,,,,,,,,,,,,,,,,,negc_negs,30,-15,15,-15,"[5, 2, 1, 0.5]",lin,1,1,8,0,4,19,up,5,0,0,77.41301162494346,77.42049879196566,77.90382316696923,77.90382316696923,77.97711529198568,77.97711529198568,77.98812612495385,78.37399695802014,1,-30,,,,,,,,,,,,,,,brian2,001,2025-08-18_14h47.11.180,tilt_staircase,2024.2.4,None,2025-08-18 14h47.22.881091 -0400,
,,,0,0,0,,,,,,,,,,,,,,,,,,0,0,0,0,78.38333774998318,,,,,,,,,,,,,,,,,,,,,,,,,,,,,,,,,,,,,,,,,,,,,,,,,,,,,,,,,,,,,,,,,,posc_noss,30,15,15,-15,"[5, 2, 1, 0.5]",lin,1,1,8,5,4,20,down,5,0,0,78.37588620802853,78.38333774998318,78.87138837494422,78.87138837494422,78.94429008301813,78.94429008301813,78.94429008301813,79.99971150001511,1,,,,,,,,,,,,,,,,brian2,001,2025-08-18_14h47.11.180,tilt_staircase,2024.2.4,None,2025-08-18 14h47.22.881091 -0400,
,,,0,0,0,,,,,,,,,,,,,,,,,,0,0,0,0,80.00510791700799,,,,,,,,,,,,,,,,,,,,,,,,,,,,,,,,,,,,,,,,,,,,,,,,,,,,,,,,,,,,,,,,,,negc_poss,30,-15,15,-15,"[5, 2, 1, 0.5]",lin,1,1,8,2,4,21,up,5,0,0,80.00078683299944,80.00510791700799,80.49751745793037,80.49751745793037,80.57792099996004,80.57792099996004,80.57792099996004,81.04524158302229,0,30,,,,,,,,,,,,,,,brian2,001,2025-08-18_14h47.11.180,tilt_staircase,2024.2.4,None,2025-08-18 14h47.22.881091 -0400,
,,,0,0,0,,,,,,,,,,,,,,,,,,0,0,0,0,81.05384641699493,,,,,,,,,,,,,,,,,,,,,,,,,,,,,,,,,,,,,,,,,,,,,,,,,,,,,,,,,,,,,,,,,,negc_noss,30,-15,15,-15,"[5, 2, 1, 0.5]",lin,1,1,8,4,4,22,up,5,0,0,81.04631162493024,81.05384641699493,81.54436658299528,81.54436658299528,81.62126149993856,81.62126149993856,81.62126149993856,82.0650708329631,1,,,,,,,,,,,,,,,,brian2,001,2025-08-18_14h47.11.180,tilt_staircase,2024.2.4,None,2025-08-18 14h47.22.881091 -0400,
,,,0,0,0,,,,,,,,,,,,,,,,,,0,0,0,0,82.07066700002179,,,,,,,,,,,,,,,,,,,,,,,,,,,,,,,,,,,,,,,,,,,,,,,,,,,,,,,,,,,,,,,,,,posc_poss,30,15,15,-15,"[5, 2, 1, 0.5]",lin,1,1,8,3,4,23,down,5,0,0,82.06615879200399,82.07066700002179,82.56397799996193,82.56397799996193,82.63812179199886,82.63812179199886,82.63812179199886,83.15714687493164,0,30,,,,,,,,,,,,,,,brian2,001,2025-08-18_14h47.11.180,tilt_staircase,2024.2.4,None,2025-08-18 14h47.22.881091 -0400,
,,,0,0,0,,,,,,,,,,,,,,,,,,0,0,0,0,83.16488120798022,,,,,,,,,,,,,,,,,,,,,,,,,,,,,,,,,,,,,,,,,,,,,,,,,,,,,,,,,,,,,,,,,,posc_negs,30,15,15,-15,"[5, 2, 1, 0.5]",lin,1,1,8,1,5,24,down,5,-5,-5,83.1583131669322,83.16488120798022,83.6538589579286,83.6538589579286,83.72794274997432,83.72794274997432,83.72794274997432,84.14642645802815,1,-30,,,,,,,,,,,,,,,brian2,001,2025-08-18_14h47.11.180,tilt_staircase,2024.2.4,None,2025-08-18 14h47.22.881091 -0400,
,,,0,0,0,,,,,,,,,,,,,,,,,,0,0,0,0,84.15517845796421,,,,,,,,,,,,,,,,,,,,,,,,,,,,,,,,,,,,,,,,,,,,,,,,,,,,,,,,,,,,,,,,,,negc_noss,30,-15,15,-15,"[5, 2, 1, 0.5]",lin,1,1,8,4,5,25,down,2,-2,-2,84.14770924998447,84.15517845796421,84.6465457919985,84.6465457919985,84.72150179196615,84.72150179196615,84.72150179196615,85.21231666696258,0,,,,,,,,,,,,,,,,brian2,001,2025-08-18_14h47.11.180,tilt_staircase,2024.2.4,None,2025-08-18 14h47.22.881091 -0400,
,,,0,0,0,,,,,,,,,,,,,,,,,,0,0,0,0,85.22045995795634,,,,,,,,,,,,,,,,,,,,,,,,,,,,,,,,,,,,,,,,,,,,,,,,,,,,,,,,,,,,,,,,,,negc_poss,30,-15,15,-15,"[5, 2, 1, 0.5]",lin,1,1,8,2,5,26,up,5,5,5,85.21339170797728,85.22045995795634,85.71418970800005,85.71418970800005,85.78828266693745,85.78828266693745,85.78828266693745,86.60709983296692,1,30,,,,,,,,,,,,,,,brian2,001,2025-08-18_14h47.11.180,tilt_staircase,2024.2.4,None,2025-08-18 14h47.22.881091 -0400,
,,,0,0,0,,,,,,,,,,,,,,,,,,0,0,0,0,86.61562345793936,,,,,,,,,,,,,,,,,,,,,,,,,,,,,,,,,,,,,,,,,,,,,,,,,,,,,,,,,,,,,,,,,,posc_poss,30,15,15,-15,"[5, 2, 1, 0.5]",lin,1,1,8,3,5,27,up,2,2,2,86.6086983330315,86.61562345793936,87.10461158293765,87.10461158293765,87.1777885829797,87.1777885829797,87.1777885829797,87.72377183299977,1,30,,,,,,,,,,,,,,,brian2,001,2025-08-18_14h47.11.180,tilt_staircase,2024.2.4,None,2025-08-18 14h47.22.881091 -0400,
,,,0,0,0,,,,,,,,,,,,,,,,,,0,0,0,0,87.73202999995556,,,,,,,,,,,,,,,,,,,,,,,,,,,,,,,,,,,,,,,,,,,,,,,,,,,,,,,,,,,,,,,,,,negc_negs,30,-15,15,-15,"[5, 2, 1, 0.5]",lin,1,1,8,0,5,28,down,2,-2,-2,87.72497025004122,87.73202999995556,88.22168008296285,88.22168008296285,88.29240166698582,88.29240166698582,88.29240166698582,88.72357320797164,1,-30,,,,,,,,,,,,,,,brian2,001,2025-08-18_14h47.11.180,tilt_staircase,2024.2.4,None,2025-08-18 14h47.22.881091 -0400,
,,,0,0,0,,,,,,,,,,,,,,,,,,0,0,0,0,88.73212145792786,,,,,,,,,,,,,,,,,,,,,,,,,,,,,,,,,,,,,,,,,,,,,,,,,,,,,,,,,,,,,,,,,,posc_noss,30,15,15,-15,"[5, 2, 1, 0.5]",lin,1,1,8,5,5,29,down,5,-5,-5,88.72494662494864,88.73212145792786,89.22157483303454,89.22157483303454,89.29449354193639,89.29449354193639,89.29449354193639,89.72355658293236,0,,,,,,,,,,,,,,,,brian2,001,2025-08-18_14h47.11.180,tilt_staircase,2024.2.4,None,2025-08-18 14h47.22.881091 -0400,
,,,0,0,0,,,,,,,,,,,,,,,,,,0,0,0,0,89.73197191697545,,,,,,,,,,,,,,,,,,,,,,,,,,,,,,,,,,,,,,,,,,,,,,,,,,,,,,,,,,,,,,,,,,posc_negs,30,15,15,-15,"[5, 2, 1, 0.5]",lin,1,1,8,1,6,30,down,5,-10,-10,89.72472312499303,89.73197191697545,90.22105974995065,90.22105974995065,90.29469424998388,90.29469424998388,90.29469424998388,90.72884058300406,0,-30,,,,,,,,,,,,,,,brian2,001,2025-08-18_14h47.11.180,tilt_staircase,2024.2.4,None,2025-08-18 14h47.22.881091 -0400,
,,,0,0,0,,,,,,,,,,,,,,,,,,0,0,0,0,90.73717874998692,,,,,,,,,,,,,,,,,,,,,,,,,,,,,,,,,,,,,,,,,,,,,,,,,,,,,,,,,,,,,,,,,,negc_noss,30,-15,15,-15,"[5, 2, 1, 0.5]",lin,1,1,8,4,6,31,up,1,-1,-1,90.72996679192875,90.73717874998692,91.23013949999586,91.23013949999586,91.30484412494116,91.30484412494116,91.30484412494116,92.22401287499815,0,,,,,,,,,,,,,,,,brian2,001,2025-08-18_14h47.11.180,tilt_staircase,2024.2.4,None,2025-08-18 14h47.22.881091 -0400,
,,,0,0,0,,,,,,,,,,,,,,,,,,0,0,0,0,92.23236775002442,,,,,,,,,,,,,,,,,,,,,,,,,,,,,,,,,,,,,,,,,,,,,,,,,,,,,,,,,,,,,,,,,,posc_poss,30,15,15,-15,"[5, 2, 1, 0.5]",lin,1,1,8,3,6,32,down,1,1,1,92.22560479200911,92.23236775002442,92.72045070794411,92.72045070794411,92.79245950002223,92.79245950002223,92.79245950002223,93.52378162497189,0,30,,,,,,,,,,,,,,,brian2,001,2025-08-18_14h47.11.180,tilt_staircase,2024.2.4,None,2025-08-18 14h47.22.881091 -0400,
,,,0,0,0,,,,,,,,,,,,,,,,,,0,0,0,0,93.53213329194114,,,,,,,,,,,,,,,,,,,,,,,,,,,,,,,,,,,,,,,,,,,,,,,,,,,,,,,,,,,,,,,,,,negc_poss,30,-15,15,-15,"[5, 2, 1, 0.5]",lin,1,1,8,2,6,33,down,2,3,3,93.52507454203442,93.53213329194114,94.02152974996716,94.02152974996716,94.09402324992698,94.09402324992698,94.09402324992698,94.67312125000171,1,30,,,,,,,,,,,,,,,brian2,001,2025-08-18_14h47.11.180,tilt_staircase,2024.2.4,None,2025-08-18 14h47.22.881091 -0400,
,,,0,0,0,,,,,,,,,,,,,,,,,,0,0,0,0,94.68012849998195,,,,,,,,,,,,,,,,,,,,,,,,,,,,,,,,,,,,,,,,,,,,,,,,,,,,,,,,,,,,,,,,,,negc_negs,30,-15,15,-15,"[5, 2, 1, 0.5]",lin,1,1,8,0,6,34,down,2,-4,-4,94.67398420802783,94.68012849998195,95.17113229201641,95.17113229201641,95.24443745799363,95.24443745799363,95.24443745799363,95.84607962495647,0,-30,,,,,,,,,,,,,,,brian2,001,2025-08-18_14h47.11.180,tilt_staircase,2024.2.4,None,2025-08-18 14h47.22.881091 -0400,
,,,0,0,0,,,,,,,,,,,,,,,,,,0,0,0,0,95.8543407919351,,,,,,,,,,,,,,,,,,,,,,,,,,,,,,,,,,,,,,,,,,,,,,,,,,,,,,,,,,,,,,,,,,posc_noss,30,15,15,-15,"[5, 2, 1, 0.5]",lin,1,1,8,5,6,35,up,2,-3,-3,95.84722916700412,95.8543407919351,96.34650099999271,96.34650099999271,96.42147495795507,96.42147495795507,96.42147495795507,96.86220083304215,0,,,,,,,,,,,,,,,,brian2,001,2025-08-18_14h47.11.180,tilt_staircase,2024.2.4,None,2025-08-18 14h47.22.881091 -0400,
,,,0,0,0,,,,,,,,,,,,,,,,,,0,0,0,0,96.87035533296876,,,,,,,,,,,,,,,,,,,,,,,,,,,,,,,,,,,,,,,,,,,,,,,,,,,,,,,,,,,,,,,,,,posc_negs,30,15,15,-15,"[5, 2, 1, 0.5]",lin,1,1,8,1,7,36,up,2,-8,-8,96.86341262503993,96.87035533296876,97.3617157919798,97.3617157919798,97.43843904195819,97.43843904195819,97.43843904195819,97.87382074992638,0,-30,,,,,,,,,,,,,,,brian2,001,2025-08-18_14h47.11.180,tilt_staircase,2024.2.4,None,2025-08-18 14h47.22.881091 -0400,
,,,0,0,0,,,,,,,,,,,,,,,,,,0,0,0,0,97.882302916958,,,,,,,,,,,,,,,,,,,,,,,,,,,,,,,,,,,,,,,,,,,,,,,,,,,,,,,,,,,,,,,,,,negc_noss,30,-15,15,-15,"[5, 2, 1, 0.5]",lin,1,1,8,4,7,37,up,1,0,0,97.87513995799236,97.882302916958,98.37079950002953,98.37079950002953,98.44428162497934,98.44428162497934,98.44428162497934,100.42291529197246,0,,,,,,,,,,,,,,,,brian2,001,2025-08-18_14h47.11.180,tilt_staircase,2024.2.4,None,2025-08-18 14h47.22.881091 -0400,
,,,0,0,0,,,,,,,,,,,,,,,,,,0,0,0,0,100.43090245802887,,,,,,,,,,,,,,,,,,,,,,,,,,,,,,,,,,,,,,,,,,,,,,,,,,,,,,,,,,,,,,,,,,posc_poss,30,15,15,-15,"[5, 2, 1, 0.5]",lin,1,1,8,3,7,38,up,0.5,1.5,1.5,100.42392224993091,100.43090245802887,100.92143408302218,100.92143408302218,100.99446670804173,100.99446670804173,100.99446670804173,101.456963332952,1,30,,,,,,,,,,,,,,,brian2,001,2025-08-18_14h47.11.180,tilt_staircase,2024.2.4,None,2025-08-18 14h47.22.881091 -0400,
,,,0,0,0,,,,,,,,,,,,,,,,,,0,0,0,0,101.46522050001658,,,,,,,,,,,,,,,,,,,,,,,,,,,,,,,,,,,,,,,,,,,,,,,,,,,,,,,,,,,,,,,,,,negc_poss,30,-15,15,-15,"[5, 2, 1, 0.5]",lin,1,1,8,2,7,39,down,2,1,1,101.45838541700505,101.46522050001658,101.95367408299353,101.95367408299353,102.02795429201797,102.02795429201797,102.02795429201797,102.72891491698101,1,30,,,,,,,,,,,,,,,brian2,001,2025-08-18_14h47.11.180,tilt_staircase,2024.2.4,None,2025-08-18 14h47.22.881091 -0400,
,,,0,0,0,,,,,,,,,,,,,,,,,,0,0,0,0,102.73698383301962,,,,,,,,,,,,,,,,,,,,,,,,,,,,,,,,,,,,,,,,,,,,,,,,,,,,,,,,,,,,,,,,,,negc_negs,30,-15,15,-15,"[5, 2, 1, 0.5]",lin,1,1,8,0,7,40,up,1,-3,-3,102.72986929200124,102.73698383301962,103.2305826669326,103.2305826669326,103.30483245803043,103.30483245803043,103.30483245803043,103.75631266692653,1,-30,,,,,,,,,,,,,,,brian2,001,2025-08-18_14h47.11.180,tilt_staircase,2024.2.4,None,2025-08-18 14h47.22.881091 -0400,
,,,0,0,0,,,,,,,,,,,,,,,,,,0,0,0,0,103.76379033294506,,,,,,,,,,,,,,,,,,,,,,,,,,,,,,,,,,,,,,,,,,,,,,,,,,,,,,,,,,,,,,,,,,posc_noss,30,15,15,-15,"[5, 2, 1, 0.5]",lin,1,1,8,5,7,41,up,2,-1,-1,103.75734300003387,103.76379033294506,104.25468429201283,104.25468429201283,104.32530024996959,104.32530024996959,104.32530024996959,104.90684779197909,0,,,,,,,,,,,,,,,,brian2,001,2025-08-18_14h47.11.180,tilt_staircase,2024.2.4,None,2025-08-18 14h47.22.881091 -0400,
,,,0,0,0,,,,,,,,,,,,,,,,,,0,0,0,0,104.91583020798862,,,,,,,,,,,,,,,,,,,,,,,,,,,,,,,,,,,,,,,,,,,,,,,,,,,,,,,,,,,,,,,,,,posc_noss,30,15,15,-15,"[5, 2, 1, 0.5]",lin,1,1,8,5,8,42,up,2,1,1,104.90853337501176,104.91583020798862,105.40471283299848,105.40471283299848,105.47731674998067,105.47731674998067,105.47731674998067,106.04553770797793,1,,,,,,,,,,,,,,,,brian2,001,2025-08-18_14h47.11.180,tilt_staircase,2024.2.4,None,2025-08-18 14h47.22.881091 -0400,
,,,0,0,0,,,,,,,,,,,,,,,,,,0,0,0,0,106.0536536249565,,,,,,,,,,,,,,,,,,,,,,,,,,,,,,,,,,,,,,,,,,,,,,,,,,,,,,,,,,,,,,,,,,negc_poss,30,-15,15,-15,"[5, 2, 1, 0.5]",lin,1,1,8,2,8,43,down,2,-1,-1,106.04664658301044,106.0536536249565,106.54691466700751,106.54691466700751,106.62134316703305,106.62134316703305,106.62134316703305,107.04018208303023,0,30,,,,,,,,,,,,,,,brian2,001,2025-08-18_14h47.11.180,tilt_staircase,2024.2.4,None,2025-08-18 14h47.22.881091 -0400,
,,,0,0,0,,,,,,,,,,,,,,,,,,0,0,0,0,107.04871912498493,,,,,,,,,,,,,,,,,,,,,,,,,,,,,,,,,,,,,,,,,,,,,,,,,,,,,,,,,,,,,,,,,,negc_noss,30,-15,15,-15,"[5, 2, 1, 0.5]",lin,1,1,8,4,8,44,up,1,1,1,107.04158529196866,107.04871912498493,107.53796712495387,107.53796712495387,107.6110882499488,107.6110882499488,107.6110882499488,108.04049341694918,1,,,,,,,,,,,,,,,,brian2,001,2025-08-18_14h47.11.180,tilt_staircase,2024.2.4,None,2025-08-18 14h47.22.881091 -0400,
,,,0,0,0,,,,,,,,,,,,,,,,,,0,0,0,0,108.04877766699065,,,,,,,,,,,,,,,,,,,,,,,,,,,,,,,,,,,,,,,,,,,,,,,,,,,,,,,,,,,,,,,,,,negc_negs,30,-15,15,-15,"[5, 2, 1, 0.5]",lin,1,1,8,0,8,45,down,0.5,-3.5,-3.5,108.04163975000847,108.04877766699065,108.53751587495208,108.53751587495208,108.61137729196344,108.61137729196344,108.61137729196344,109.54050329199526,0,-30,,,,,,,,,,,,,,,brian2,001,2025-08-18_14h47.11.180,tilt_staircase,2024.2.4,None,2025-08-18 14h47.22.881091 -0400,
,,,0,0,0,,,,,,,,,,,,,,,,,,0,0,0,0,109.54896104196087,,,,,,,,,,,,,,,,,,,,,,,,,,,,,,,,,,,,,,,,,,,,,,,,,,,,,,,,,,,,,,,,,,posc_poss,30,15,15,-15,"[5, 2, 1, 0.5]",lin,1,1,8,3,8,46,down,0.5,1.0,1.0,109.54231012496166,109.54896104196087,110.03698733297642,110.03698733297642,110.11126241693273,110.11126241693273,110.11126241693273,111.3877097920049,1,30,,,,,,,,,,,,,,,brian2,001,2025-08-18_14h47.11.180,tilt_staircase,2024.2.4,None,2025-08-18 14h47.22.881091 -0400,
,,,0,0,0,,,,,,,,,,,,,,,,,,0,0,0,0,111.3924453749787,,,,,,,,,,,,,,,,,,,,,,,,,,,,,,,,,,,,,,,,,,,,,,,,,,,,,,,,,,,,,,,,,,posc_negs,30,15,15,-15,"[5, 2, 1, 0.5]",lin,1,1,8,1,8,47,up,2,-6,-6,111.38872104196344,111.3924453749787,111.88016604201403,111.88016604201403,111.9549073750386,111.9549073750386,111.96128154196776,112.5237807079684,0,-30,,,,,,,,,,,,,,,brian2,001,2025-08-18_14h47.11.180,tilt_staircase,2024.2.4,None,2025-08-18 14h47.22.881091 -0400,
,,,0,0,0,,,,,,,,,,,,,,,,,,0,0,0,0,112.53210862493142,,,,,,,,,,,,,,,,,,,,,,,,,,,,,,,,,,,,,,,,,,,,,,,,,,,,,,,,,,,,,,,,,,negc_negs,30,-15,15,-15,"[5, 2, 1, 0.5]",lin,1,1,8,0,9,48,up,0.5,-3.0,-3.0,112.52546645794064,112.53210862493142,113.02136820799205,113.02136820799205,113.09449308295734,113.09449308295734,113.09449308295734,113.81343583296984,0,-30,,,,,,,,,,,,,,,brian2,001,2025-08-18_14h47.11.180,tilt_staircase,2024.2.4,None,2025-08-18 14h47.22.881091 -0400,
,,,0,0,0,,,,,,,,,,,,,,,,,,0,0,0,0,113.82055804203264,,,,,,,,,,,,,,,,,,,,,,,,,,,,,,,,,,,,,,,,,,,,,,,,,,,,,,,,,,,,,,,,,,negc_poss,30,-15,15,-15,"[5, 2, 1, 0.5]",lin,1,1,8,2,9,49,up,1,0,0,113.81404049997218,113.82055804203264,114.31339458294678,114.31339458294678,114.38839741703123,114.38839741703123,114.38839741703123,114.96324241696857,0,30,,,,,,,,,,,,,,,brian2,001,2025-08-18_14h47.11.180,tilt_staircase,2024.2.4,None,2025-08-18 14h47.22.881091 -0400,
,,,0,0,0,,,,,,,,,,,,,,,,,,0,0,0,0,114.97428266704082,,,,,,,,,,,,,,,,,,,,,,,,,,,,,,,,,,,,,,,,,,,,,,,,,,,,,,,,,,,,,,,,,,posc_poss,30,15,15,-15,"[5, 2, 1, 0.5]",lin,1,1,8,3,9,50,down,0.5,0.5,0.5,114.9645692500053,114.97428266704082,115.464160042,115.464160042,115.53815475001466,115.53815475001466,115.53815475001466,116.05704508302733,0,30,,,,,,,,,,,,,,,brian2,001,2025-08-18_14h47.11.180,tilt_staircase,2024.2.4,None,2025-08-18 14h47.22.881091 -0400,
,,,0,0,0,,,,,,,,,,,,,,,,,,0,0,0,0,116.0651878749486,,,,,,,,,,,,,,,,,,,,,,,,,,,,,,,,,,,,,,,,,,,,,,,,,,,,,,,,,,,,,,,,,,posc_negs,30,15,15,-15,"[5, 2, 1, 0.5]",lin,1,1,8,1,9,51,up,2,-4,-4,116.05814141698647,116.0651878749486,116.55455454194453,116.55455454194453,116.62794216698967,116.62794216698967,116.62794216698967,117.24955841701012,0,-30,,,,,,,,,,,,,,,brian2,001,2025-08-18_14h47.11.180,tilt_staircase,2024.2.4,None,2025-08-18 14h47.22.881091 -0400,
,,,0,0,0,,,,,,,,,,,,,,,,,,0,0,0,0,117.25487062497996,,,,,,,,,,,,,,,,,,,,,,,,,,,,,,,,,,,,,,,,,,,,,,,,,,,,,,,,,,,,,,,,,,negc_noss,30,-15,15,-15,"[5, 2, 1, 0.5]",lin,1,1,8,4,9,52,down,0.5,0.5,0.5,117.2505760419881,117.25487062497996,117.74657054198906,117.74657054198906,117.82168120797724,117.82168120797724,117.82823316694703,118.29040162498131,1,,,,,,,,,,,,,,,,brian2,001,2025-08-18_14h47.11.180,tilt_staircase,2024.2.4,None,2025-08-18 14h47.22.881091 -0400,
,,,0,0,0,,,,,,,,,,,,,,,,,,0,0,0,0,118.2985405420186,,,,,,,,,,,,,,,,,,,,,,,,,,,,,,,,,,,,,,,,,,,,,,,,,,,,,,,,,,,,,,,,,,posc_noss,30,15,15,-15,"[5, 2, 1, 0.5]",lin,1,1,8,5,9,53,down,1,0,0,118.29197958298028,118.2985405420186,118.78814808302559,118.78814808302559,118.86124174995348,118.86124174995348,118.86124174995348,119.5742659169482,1,,,,,,,,,,,,,,,,brian2,001,2025-08-18_14h47.11.180,tilt_staircase,2024.2.4,None,2025-08-18 14h47.22.881091 -0400,
,,,0,0,0,,,,,,,,,,,,,,,,,,0,0,0,0,119.58380725001916,,,,,,,,,,,,,,,,,,,,,,,,,,,,,,,,,,,,,,,,,,,,,,,,,,,,,,,,,,,,,,,,,,posc_poss,30,15,15,-15,"[5, 2, 1, 0.5]",lin,1,1,8,3,10,54,up,0.5,1.0,1.0,119.57639745797496,119.58380725001916,120.0715932919411,120.0715932919411,120.14201470802072,120.14201470802072,120.14201470802072,122.72951016703155,1,30,,,,,,,,,,,,,,,brian2,001,2025-08-18_14h47.11.180,tilt_staircase,2024.2.4,None,2025-08-18 14h47.22.881091 -0400,
,,,0,0,0,,,,,,,,,,,,,,,,,,0,0,0,0,122.75476462498773,,,,,,,,,,,,,,,,,,,,,,,,,,,,,,,,,,,,,,,,,,,,,,,,,,,,,,,,,,,,,,,,,,negc_noss,30,-15,15,-15,"[5, 2, 1, 0.5]",lin,1,1,8,4,10,55,down,0.5,0.0,0.0,122.7308617499657,122.75476462498773,123.22864591702819,123.22864591702819,123.30494824994821,123.30494824994821,123.30494824994821,125.73020020802505,0,,,,,,,,,,,,,,,,brian2,001,2025-08-18_14h47.11.180,tilt_staircase,2024.2.4,None,2025-08-18 14h47.22.881091 -0400,
,,,0,0,0,,,,,,,,,,,,,,,,,,0,0,0,0,125.75465174997225,,,,,,,,,,,,,,,,,,,,,,,,,,,,,,,,,,,,,,,,,,,,,,,,,,,,,,,,,,,,,,,,,,posc_noss,30,15,15,-15,"[5, 2, 1, 0.5]",lin,1,1,8,5,10,56,down,1,-1,-1,125.73162341699935,125.75465174997225,126.22981754201464,126.22981754201464,126.30473866697866,126.30473866697866,126.30473866697866,127.59027037501801,1,,,,,,,,,,,,,,,,brian2,001,2025-08-18_14h47.11.180,tilt_staircase,2024.2.4,None,2025-08-18 14h47.22.881091 -0400,
,,,0,0,0,,,,,,,,,,,,,,,,,,0,0,0,0,127.59838429198135,,,,,,,,,,,,,,,,,,,,,,,,,,,,,,,,,,,,,,,,,,,,,,,,,,,,,,,,,,,,,,,,,,posc_negs,30,15,15,-15,"[5, 2, 1, 0.5]",lin,1,1,8,1,10,57,up,2,-2,-2,127.59136529196985,127.59838429198135,128.08694512501825,128.08694512501825,128.16075637494214,128.16075637494214,128.16075637494214,129.6567883749958,1,-30,,,,,,,,,,,,,,,brian2,001,2025-08-18_14h47.11.180,tilt_staircase,2024.2.4,None,2025-08-18 14h47.22.881091 -0400,
,,,0,0,0,,,,,,,,,,,,,,,,,,0,0,0,0,129.66568033304065,,,,,,,,,,,,,,,,,,,,,,,,,,,,,,,,,,,,,,,,,,,,,,,,,,,,,,,,,,,,,,,,,,negc_negs,30,-15,15,-15,"[5, 2, 1, 0.5]",lin,1,1,8,0,10,58,up,0.5,-2.5,-2.5,129.65852950001135,129.66568033304065,130.15389583294746,130.15389583294746,130.22834404197056,130.22834404197056,130.22834404197056,131.00457862496842,0,-30,,,,,,,,,,,,,,,brian2,001,2025-08-18_14h47.11.180,tilt_staircase,2024.2.4,None,2025-08-18 14h47.22.881091 -0400,
,,,0,0,0,,,,,,,,,,,,,,,,,,0,0,0,0,131.00909141695593,,,,,,,,,,,,,,,,,,,,,,,,,,,,,,,,,,,,,,,,,,,,,,,,,,,,,,,,,,,,,,,,,,negc_poss,30,-15,15,-15,"[5, 2, 1, 0.5]",lin,1,1,8,2,10,59,up,1,1,1,131.00505999999586,131.00909141695593,131.49451925000176,131.49451925000176,131.57045341702178,131.57045341702178,131.5752687919885,132.12377858301625,0,30,,,,,,,,,,,,,,,brian2,001,2025-08-18_14h47.11.180,tilt_staircase,2024.2.4,None,2025-08-18 14h47.22.881091 -0400,
,,,0,0,0,,,,,,,,,,,,,,,,,,0,0,0,0,132.13121254194994,,,,,,,,,,,,,,,,,,,,,,,,,,,,,,,,,,,,,,,,,,,,,,,,,,,,,,,,,,,,,,,,,,posc_negs,30,15,15,-15,"[5, 2, 1, 0.5]",lin,1,1,8,1,11,60,down,1,-3,-3,132.1249388329452,132.13121254194994,132.620375999948,132.620375999948,132.6944757499732,132.6944757499732,132.6944757499732,133.31464141700417,0,-30,,,,,,,,,,,,,,,brian2,001,2025-08-18_14h47.11.180,tilt_staircase,2024.2.4,None,2025-08-18 14h47.22.881091 -0400,
,,,0,0,0,,,,,,,,,,,,,,,,,,0,0,0,0,133.3200039169751,,,,,,,,,,,,,,,,,,,,,,,,,,,,,,,,,,,,,,,,,,,,,,,,,,,,,,,,,,,,,,,,,,negc_negs,30,-15,15,-15,"[5, 2, 1, 0.5]",lin,1,1,8,0,11,61,up,0.5,-2.0,-2.0,133.31570145802107,133.3200039169751,133.8130995419342,133.8130995419342,133.88809704198502,133.88809704198502,133.88809704198502,136.44812220800668,0,-30,,,,,,,,,,,,,,,brian2,001,2025-08-18_14h47.11.180,tilt_staircase,2024.2.4,None,2025-08-18 14h47.22.881091 -0400,
,,,0,0,0,,,,,,,,,,,,,,,,,,0,0,0,0,136.45347562502138,,,,,,,,,,,,,,,,,,,,,,,,,,,,,,,,,,,,,,,,,,,,,,,,,,,,,,,,,,,,,,,,,,negc_noss,30,-15,15,-15,"[5, 2, 1, 0.5]",lin,1,1,8,4,11,62,up,0.5,0.5,0.5,136.4491234170273,136.45347562502138,136.94516708294395,136.94516708294395,137.02142920799088,137.02142920799088,137.02741574996617,137.49597141693812,1,,,,,,,,,,,,,,,,brian2,001,2025-08-18_14h47.11.180,tilt_staircase,2024.2.4,None,2025-08-18 14h47.22.881091 -0400,
,,,0,0,0,,,,,,,,,,,,,,,,,,0,0,0,0,137.50434624997433,,,,,,,,,,,,,,,,,,,,,,,,,,,,,,,,,,,,,,,,,,,,,,,,,,,,,,,,,,,,,,,,,,posc_poss,30,15,15,-15,"[5, 2, 1, 0.5]",lin,1,1,8,3,11,63,down,0.5,0.5,0.5,137.49703175004106,137.50434624997433,137.99621124996338,137.99621124996338,138.07134699996095,138.07134699996095,138.07134699996095,139.40584795793984,1,30,,,,,,,,,,,,,,,brian2,001,2025-08-18_14h47.11.180,tilt_staircase,2024.2.4,None,2025-08-18 14h47.22.881091 -0400,
,,,0,0,0,,,,,,,,,,,,,,,,,,0,0,0,0,139.413987332955,,,,,,,,,,,,,,,,,,,,,,,,,,,,,,,,,,,,,,,,,,,,,,,,,,,,,,,,,,,,,,,,,,posc_noss,30,15,15,-15,"[5, 2, 1, 0.5]",lin,1,1,8,5,11,64,down,1,-2,-2,139.40683129196987,139.413987332955,139.90452845802065,139.90452845802065,139.97559895797167,139.97559895797167,139.97559895797167,140.3898980829399,0,,,,,,,,,,,,,,,,brian2,001,2025-08-18_14h47.11.180,tilt_staircase,2024.2.4,None,2025-08-18 14h47.22.881091 -0400,
,,,0,0,0,,,,,,,,,,,,,,,,,,0,0,0,0,140.39670691697393,,,,,,,,,,,,,,,,,,,,,,,,,,,,,,,,,,,,,,,,,,,,,,,,,,,,,,,,,,,,,,,,,,negc_poss,30,-15,15,-15,"[5, 2, 1, 0.5]",lin,1,1,8,2,11,65,up,1,2,2,140.39092966692988,140.39670691697393,140.88803520798683,140.88803520798683,140.9605895000277,140.9605895000277,140.9605895000277,141.5563525420148,1,30,,,,,,,,,,,,,,,brian2,001,2025-08-18_14h47.11.180,tilt_staircase,2024.2.4,None,2025-08-18 14h47.22.881091 -0400,
,,,0,0,0,,,,,,,,,,,,,,,,,,0,0,0,0,141.56393212499097,,,,,,,,,,,,,,,,,,,,,,,,,,,,,,,,,,,,,,,,,,,,,,,,,,,,,,,,,,,,,,,,,,posc_negs,30,15,15,-15,"[5, 2, 1, 0.5]",lin,1,1,8,1,12,66,up,0.5,-2.5,-2.5,141.5573615829926,141.56393212499097,142.053637666977,142.053637666977,142.12493120797444,142.12493120797444,142.12493120797444,142.8234347079415,1,-30,,,,,,,,,,,,,,,brian2,001,2025-08-18_14h47.11.180,tilt_staircase,2024.2.4,None,2025-08-18 14h47.22.881091 -0400,
,,,0,0,0,,,,,,,,,,,,,,,,,,0,0,0,0,142.83186112495605,,,,,,,,,,,,,,,,,,,,,,,,,,,,,,,,,,,,,,,,,,,,,,,,,,,,,,,,,,,,,,,,,,posc_noss,30,15,15,-15,"[5, 2, 1, 0.5]",lin,1,1,8,5,12,67,up,0.5,-1.5,-1.5,142.8249552079942,142.83186112495605,143.32023354200646,143.32023354200646,143.39424895797856,143.39424895797856,143.39424895797856,143.87905916699674,0,,,,,,,,,,,,,,,,brian2,001,2025-08-18_14h47.11.180,tilt_staircase,2024.2.4,None,2025-08-18 14h47.22.881091 -0400,
,,,0,0,0,,,,,,,,,,,,,,,,,,0,0,0,0,143.88674524996895,,,,,,,,,,,,,,,,,,,,,,,,,,,,,,,,,,,,,,,,,,,,,,,,,,,,,,,,,,,,,,,,,,posc_poss,30,15,15,-15,"[5, 2, 1, 0.5]",lin,1,1,8,3,12,68,down,0.5,0.0,0.0,143.88006604195107,143.88674524996895,144.3807926250156,144.3807926250156,144.45458349992987,144.45458349992987,144.45458349992987,147.12757849995978,1,30,,,,,,,,,,,,,,,brian2,001,2025-08-18_14h47.11.180,tilt_staircase,2024.2.4,None,2025-08-18 14h47.22.881091 -0400,
,,,0,0,0,,,,,,,,,,,,,,,,,,0,0,0,0,147.13684412499424,,,,,,,,,,,,,,,,,,,,,,,,,,,,,,,,,,,,,,,,,,,,,,,,,,,,,,,,,,,,,,,,,,negc_negs,30,-15,15,-15,"[5, 2, 1, 0.5]",lin,1,1,8,0,12,69,up,0.5,-1.5,-1.5,147.12856170802843,147.13684412499424,147.62933270796202,147.62933270796202,147.70466666703578,147.70466666703578,147.70466666703578,148.19142687495332,1,-30,,,,,,,,,,,,,,,brian2,001,2025-08-18_14h47.11.180,tilt_staircase,2024.2.4,None,2025-08-18 14h47.22.881091 -0400,
,,,0,0,0,,,,,,,,,,,,,,,,,,0,0,0,0,148.19801858300343,,,,,,,,,,,,,,,,,,,,,,,,,,,,,,,,,,,,,,,,,,,,,,,,,,,,,,,,,,,,,,,,,,negc_poss,30,-15,15,-15,"[5, 2, 1, 0.5]",lin,1,1,8,2,12,70,down,0.5,1.5,1.5,148.19274616695475,148.19801858300343,148.6868468329776,148.6868468329776,148.76088091696147,148.76088091696147,148.76088091696147,149.3736741669709,1,30,,,,,,,,,,,,,,,brian2,001,2025-08-18_14h47.11.180,tilt_staircase,2024.2.4,None,2025-08-18 14h47.22.881091 -0400,
,,,0,0,0,,,,,,,,,,,,,,,,,,0,0,0,0,149.38207591697574,,,,,,,,,,,,,,,,,,,,,,,,,,,,,,,,,,,,,,,,,,,,,,,,,,,,,,,,,,,,,,,,,,negc_noss,30,-15,15,-15,"[5, 2, 1, 0.5]",lin,1,1,8,4,12,71,down,0.5,0.0,0.0,149.3748902080115,149.38207591697574,149.87067583296448,149.87067583296448,149.94348250003532,149.94348250003532,149.94348250003532,150.69876441697124,1,,,,,,,,,,,,,,,,brian2,001,2025-08-18_14h47.11.180,tilt_staircase,2024.2.4,None,2025-08-18 14h47.22.881091 -0400,
,,,0,0,0,,,,,,,,,,,,,,,,,,0,0,0,0,150.7041487499373,,,,,,,,,,,,,,,,,,,,,,,,,,,,,,,,,,,,,,,,,,,,,,,,,,,,,,,,,,,,,,,,,,negc_poss,30,-15,15,-15,"[5, 2, 1, 0.5]",lin,1,1,8,2,13,72,down,0.5,1.0,1.0,150.6997762080282,150.7041487499373,151.19600387499668,151.19600387499668,151.27129125001375,151.27129125001375,151.2773797919508,152.67598091694526,1,30,,,,,,,,,,,,,,,brian2,001,2025-08-18_14h47.11.180,tilt_staircase,2024.2.4,None,2025-08-18 14h47.22.881091 -0400,
,,,0,0,0,,,,,,,,,,,,,,,,,,0,0,0,0,152.68365124997217,,,,,,,,,,,,,,,,,,,,,,,,,,,,,,,,,,,,,,,,,,,,,,,,,,,,,,,,,,,,,,,,,,negc_noss,30,-15,15,-15,"[5, 2, 1, 0.5]",lin,1,1,8,4,13,73,down,0.5,-0.5,-0.5,152.677058457979,152.68365124997217,153.1712464579614,153.1712464579614,153.24308299995027,153.24308299995027,153.25496037502307,154.56192195799667,1,,,,,,,,,,,,,,,,brian2,001,2025-08-18_14h47.11.180,tilt_staircase,2024.2.4,None,2025-08-18 14h47.22.881091 -0400,
,,,0,0,0,,,,,,,,,,,,,,,,,,0,0,0,0,154.5702576249605,,,,,,,,,,,,,,,,,,,,,,,,,,,,,,,,,,,,,,,,,,,,,,,,,,,,,,,,,,,,,,,,,,posc_negs,30,15,15,-15,"[5, 2, 1, 0.5]",lin,1,1,8,1,13,74,down,0.5,-3.0,-3.0,154.56298724992666,154.5702576249605,155.061293457984,155.061293457984,155.13734216697048,155.13734216697048,155.13734216697048,155.72829345799983,1,-30,,,,,,,,,,,,,,,brian2,001,2025-08-18_14h47.11.180,tilt_staircase,2024.2.4,None,2025-08-18 14h47.22.881091 -0400,
,,,0,0,0,,,,,,,,,,,,,,,,,,0,0,0,0,155.73683658300433,,,,,,,,,,,,,,,,,,,,,,,,,,,,,,,,,,,,,,,,,,,,,,,,,,,,,,,,,,,,,,,,,,posc_poss,30,15,15,-15,"[5, 2, 1, 0.5]",lin,1,1,8,3,13,75,down,0.5,-0.5,-0.5,155.72933591692708,155.73683658300433,156.2202421670081,156.2202421670081,156.29275783302728,156.29275783302728,156.30471745796967,157.17310699995141,0,30,,,,,,,,,,,,,,,brian2,001,2025-08-18_14h47.11.180,tilt_staircase,2024.2.4,None,2025-08-18 14h47.22.881091 -0400,
,,,0,0,0,,,,,,,,,,,,,,,,,,0,0,0,0,157.1874830829911,,,,,,,,,,,,,,,,,,,,,,,,,,,,,,,,,,,,,,,,,,,,,,,,,,,,,,,,,,,,,,,,,,posc_noss,30,15,15,-15,"[5, 2, 1, 0.5]",lin,1,1,8,5,13,76,up,0.5,-1.0,-1.0,157.1742088330211,157.1874830829911,157.67017383303028,157.67017383303028,157.74457550002262,157.74457550002262,157.74457550002262,158.7651328330394,0,,,,,,,,,,,,,,,,brian2,001,2025-08-18_14h47.11.180,tilt_staircase,2024.2.4,None,2025-08-18 14h47.22.881091 -0400,
,,,0,0,0,,,,,,,,,,,,,,,,,,0,0,0,0,158.77048670803197,,,,,,,,,,,,,,,,,,,,,,,,,,,,,,,,,,,,,,,,,,,,,,,,,,,,,,,,,,,,,,,,,,negc_negs,30,-15,15,-15,"[5, 2, 1, 0.5]",lin,1,1,8,0,13,77,down,0.5,-2.0,-2.0,158.76610541692935,158.77048670803197,159.26336629199795,159.26336629199795,159.3383286249591,159.3383286249591,159.3383286249591,159.84900849999394,1,-30,,,,,,,,,,,,,,,brian2,001,2025-08-18_14h47.11.180,tilt_staircase,2024.2.4,None,2025-08-18 14h47.22.881091 -0400,
,,,0,0,0,,,,,,,,,,,,,,,,,,0,0,0,0,159.85458233300596,,,,,,,,,,,,,,,,,,,,,,,,,,,,,,,,,,,,,,,,,,,,,,,,,,,,,,,,,,,,,,,,,,negc_poss,30,-15,15,-15,"[5, 2, 1, 0.5]",lin,1,1,8,2,14,78,down,0.5,0.5,0.5,159.8500964579871,159.85458233300596,160.34743920795154,160.34743920795154,160.42173270799685,160.42173270799685,160.42761816701386,160.90600829198956,0,30,,,,,,,,,,,,,,,brian2,001,2025-08-18_14h47.11.180,tilt_staircase,2024.2.4,None,2025-08-18 14h47.22.881091 -0400,
,,,0,0,0,,,,,,,,,,,,,,,,,,0,0,0,0,160.9134179999819,,,,,,,,,,,,,,,,,,,,,,,,,,,,,,,,,,,,,,,,,,,,,,,,,,,,,,,,,,,,,,,,,,posc_noss,30,15,15,-15,"[5, 2, 1, 0.5]",lin,1,1,8,5,14,79,up,0.5,-0.5,-0.5,160.90694633300882,160.9134179999819,161.40362970798742,161.40362970798742,161.4767864169553,161.4767864169553,161.4767864169553,162.28968379204161,0,,,,,,,,,,,,,,,,brian2,001,2025-08-18_14h47.11.180,tilt_staircase,2024.2.4,None,2025-08-18 14h47.22.881091 -0400,
,,,0,0,0,,,,,,,,,,,,,,,,,,0,0,0,0,162.29801666701678,,,,,,,,,,,,,,,,,,,,,,,,,,,,,,,,,,,,,,,,,,,,,,,,,,,,,,,,,,,,,,,,,,posc_poss,30,15,15,-15,"[5, 2, 1, 0.5]",lin,1,1,8,3,14,80,up,0.5,0.0,0.0,162.29092308296822,162.29801666701678,162.78682654199656,162.78682654199656,162.8611542499857,162.8611542499857,162.8611542499857,163.35698908299673,0,30,,,,,,,,,,,,,,,brian2,001,2025-08-18_14h47.11.180,tilt_staircase,2024.2.4,None,2025-08-18 14h47.22.881091 -0400,
,,,0,0,0,,,,,,,,,,,,,,,,,,0,0,0,0,163.36576404201332,,,,,,,,,,,,,,,,,,,,,,,,,,,,,,,,,,,,,,,,,,,,,,,,,,,,,,,,,,,,,,,,,,negc_noss,30,-15,15,-15,"[5, 2, 1, 0.5]",lin,1,1,8,4,14,81,down,0.5,-1.0,-1.0,163.35885983298067,163.36576404201332,163.85458275000565,163.85458275000565,163.92715254193172,163.92715254193172,163.92715254193172,164.3960921249818,0,,,,,,,,,,,,,,,,brian2,001,2025-08-18_14h47.11.180,tilt_staircase,2024.2.4,None,2025-08-18 14h47.22.881091 -0400,
,,,0,0,0,,,,,,,,,,,,,,,,,,0,0,0,0,164.4041544169886,,,,,,,,,,,,,,,,,,,,,,,,,,,,,,,,,,,,,,,,,,,,,,,,,,,,,,,,,,,,,,,,,,posc_negs,30,15,15,-15,"[5, 2, 1, 0.5]",lin,1,1,8,1,14,82,down,0.5,-3.5,-3.5,164.3973951250082,164.4041544169886,164.89501033292618,164.89501033292618,164.9707764169434,164.9707764169434,164.9707764169434,165.6715814169729,0,-30,,,,,,,,,,,,,,,brian2,001,2025-08-18_14h47.11.180,tilt_staircase,2024.2.4,None,2025-08-18 14h47.22.881091 -0400,
,,,0,0,0,,,,,,,,,,,,,,,,,,0,0,0,0,165.67719766695518,,,,,,,,,,,,,,,,,,,,,,,,,,,,,,,,,,,,,,,,,,,,,,,,,,,,,,,,,,,,,,,,,,negc_negs,30,-15,15,-15,"[5, 2, 1, 0.5]",lin,1,1,8,0,14,83,down,0.5,-2.5,-2.5,165.67229058302473,165.67719766695518,166.16376783302985,166.16376783302985,166.2439266250003,166.2439266250003,166.2439266250003,166.83938554197084,0,-30,,,,,,,,,,,,,,,brian2,001,2025-08-18_14h47.11.180,tilt_staircase,2024.2.4,None,2025-08-18 14h47.22.881091 -0400,
,,,0,0,0,,,,,,,,,,,,,,,,,,0,0,0,0,166.8475826670183,,,,,,,,,,,,,,,,,,,,,,,,,,,,,,,,,,,,,,,,,,,,,,,,,,,,,,,,,,,,,,,,,,posc_poss,30,15,15,-15,"[5, 2, 1, 0.5]",lin,1,1,8,3,15,84,up,0.5,0.5,0.5,166.840486333007,166.8475826670183,167.33693362493068,167.33693362493068,167.4091462920187,167.4091462920187,167.4091462920187,167.84565533301793,0,30,,,,,,,,,,,,,,,brian2,001,2025-08-18_14h47.11.180,tilt_staircase,2024.2.4,None,2025-08-18 14h47.22.881091 -0400,
,,,0,0,0,,,,,,,,,,,,,,,,,,0,0,0,0,167.85410079197027,,,,,,,,,,,,,,,,,,,,,,,,,,,,,,,,,,,,,,,,,,,,,,,,,,,,,,,,,,,,,,,,,,posc_negs,30,15,15,-15,"[5, 2, 1, 0.5]",lin,1,1,8,1,15,85,up,0.5,-3.0,-3.0,167.84701641695574,167.85410079197027,168.34646720800083,168.34646720800083,168.42127058294136,168.42127058294136,168.42127058294136,168.94608100003097,1,-30,,,,,,,,,,,,,,,brian2,001,2025-08-18_14h47.11.180,tilt_staircase,2024.2.4,None,2025-08-18 14h47.22.881091 -0400,
,,,0,0,0,,,,,,,,,,,,,,,,,,0,0,0,0,168.9546014169464,,,,,,,,,,,,,,,,,,,,,,,,,,,,,,,,,,,,,,,,,,,,,,,,,,,,,,,,,,,,,,,,,,negc_noss,30,-15,15,-15,"[5, 2, 1, 0.5]",lin,1,1,8,4,15,86,up,0.5,-0.5,-0.5,168.94732895796187,168.9546014169464,169.44668320799246,169.44668320799246,169.52679274999537,169.52679274999537,169.52149462501984,170.09156837500632,1,,,,,,,,,,,,,,,,brian2,001,2025-08-18_14h47.11.180,tilt_staircase,2024.2.4,None,2025-08-18 14h47.22.881091 -0400,
,,,0,0,0,,,,,,,,,,,,,,,,,,0,0,0,0,170.0998514579842,,,,,,,,,,,,,,,,,,,,,,,,,,,,,,,,,,,,,,,,,,,,,,,,,,,,,,,,,,,,,,,,,,negc_negs,30,-15,15,-15,"[5, 2, 1, 0.5]",lin,1,1,8,0,15,87,up,0.5,-2.0,-2.0,170.09296637494117,170.0998514579842,170.58766262501013,170.58766262501013,170.6612791250227,170.6612791250227,170.6612791250227,171.39521941693965,1,-30,,,,,,,,,,,,,,,brian2,001,2025-08-18_14h47.11.180,tilt_staircase,2024.2.4,None,2025-08-18 14h47.22.881091 -0400,
,,,0,0,0,,,,,,,,,,,,,,,,,,0,0,0,0,171.40346924995538,,,,,,,,,,,,,,,,,,,,,,,,,,,,,,,,,,,,,,,,,,,,,,,,,,,,,,,,,,,,,,,,,,negc_poss,30,-15,15,-15,"[5, 2, 1, 0.5]",lin,1,1,8,2,15,88,up,0.5,1.0,1.0,171.39622812496964,171.40346924995538,171.89704829198308,171.89704829198308,171.97118858294562,171.97118858294562,171.97118858294562,172.4060267499881,0,30,,,,,,,,,,,,,,,brian2,001,2025-08-18_14h47.11.180,tilt_staircase,2024.2.4,None,2025-08-18 14h47.22.881091 -0400,
,,,0,0,0,,,,,,,,,,,,,,,,,,0,0,0,0,172.41358104196843,,,,,,,,,,,,,,,,,,,,,,,,,,,,,,,,,,,,,,,,,,,,,,,,,,,,,,,,,,,,,,,,,,posc_noss,30,15,15,-15,"[5, 2, 1, 0.5]",lin,1,1,8,5,15,89,up,0.5,0.0,0.0,172.40702325000893,172.41358104196843,172.9035102080088,172.9035102080088,172.97708120802417,172.97708120802417,172.97708120802417,173.5404102919856,1,,,,,,,,,,,,,,,,brian2,001,2025-08-18_14h47.11.180,tilt_staircase,2024.2.4,None,2025-08-18 14h47.22.881091 -0400,
,,,0,0,0,,,,,,,,,,,,,,,,,,0,0,0,0,173.5488717079861,,,,,,,,,,,,,,,,,,,,,,,,,,,,,,,,,,,,,,,,,,,,,,,,,,,,,,,,,,,,,,,,,,posc_negs,30,15,15,-15,"[5, 2, 1, 0.5]",lin,1,1,8,1,16,90,down,0.5,-3.5,-3.5,173.542098792037,173.5488717079861,174.0368784579914,174.0368784579914,174.10827879200224,174.10827879200224,174.10827879200224,175.078829749953,0,-30,,,,,,,,,,,,,,,brian2,001,2025-08-18_14h47.11.180,tilt_staircase,2024.2.4,None,2025-08-18 14h47.22.881091 -0400,
,,,0,0,0,,,,,,,,,,,,,,,,,,0,0,0,0,175.08680858300067,,,,,,,,,,,,,,,,,,,,,,,,,,,,,,,,,,,,,,,,,,,,,,,,,,,,,,,,,,,,,,,,,,negc_negs,30,-15,15,-15,"[5, 2, 1, 0.5]",lin,1,1,8,0,16,91,down,0.5,-2.5,-2.5,175.07959087495692,175.08680858300067,175.58024729194585,175.58024729194585,175.65452708303928,175.65452708303928,175.65452708303928,176.1117198750144,1,-30,,,,,,,,,,,,,,,brian2,001,2025-08-18_14h47.11.180,tilt_staircase,2024.2.4,None,2025-08-18 14h47.22.881091 -0400,
,,,0,0,0,,,,,,,,,,,,,,,,,,0,0,0,0,176.1199653330259,,,,,,,,,,,,,,,,,,,,,,,,,,,,,,,,,,,,,,,,,,,,,,,,,,,,,,,,,,,,,,,,,,negc_poss,30,-15,15,-15,"[5, 2, 1, 0.5]",lin,1,1,8,2,16,92,up,0.5,1.5,1.5,176.11277645803057,176.1199653330259,176.61378441692796,176.61378441692796,176.6877842079848,176.6877842079848,176.6877842079848,177.3493353750091,1,30,,,,,,,,,,,,,,,brian2,001,2025-08-18_14h47.11.180,tilt_staircase,2024.2.4,None,2025-08-18 14h47.22.881091 -0400,
,,,0,0,0,,,,,,,,,,,,,,,,,,0,0,0,0,177.35473749996163,,,,,,,,,,,,,,,,,,,,,,,,,,,,,,,,,,,,,,,,,,,,,,,,,,,,,,,,,,,,,,,,,,posc_poss,30,15,15,-15,"[5, 2, 1, 0.5]",lin,1,1,8,3,16,93,up,0.5,1.0,1.0,177.3503907499835,177.35473749996163,177.8459043749608,177.8459043749608,177.92132662492804,177.92132662492804,177.9279692079872,178.64581583300605,1,30,,,,,,,,,,,,,,,brian2,001,2025-08-18_14h47.11.180,tilt_staircase,2024.2.4,None,2025-08-18 14h47.22.881091 -0400,
,,,0,0,0,,,,,,,,,,,,,,,,,,0,0,0,0,178.6544434579555,,,,,,,,,,,,,,,,,,,,,,,,,,,,,,,,,,,,,,,,,,,,,,,,,,,,,,,,,,,,,,,,,,posc_noss,30,15,15,-15,"[5, 2, 1, 0.5]",lin,1,1,8,5,16,94,down,0.5,-0.5,-0.5,178.6471354579553,178.6544434579555,179.1466190420324,179.1466190420324,179.22114987496752,179.22114987496752,179.22114987496752,179.95678212493658,1,,,,,,,,,,,,,,,,brian2,001,2025-08-18_14h47.11.180,tilt_staircase,2024.2.4,None,2025-08-18 14h47.22.881091 -0400,
,,,0,0,0,,,,,,,,,,,,,,,,,,0,0,0,0,179.96612570795696,,,,,,,,,,,,,,,,,,,,,,,,,,,,,,,,,,,,,,,,,,,,,,,,,,,,,,,,,,,,,,,,,,negc_noss,30,-15,15,-15,"[5, 2, 1, 0.5]",lin,1,1,8,4,16,95,down,0.5,-1.0,-1.0,179.95876895799302,179.96612570795696,180.454125749995,180.454125749995,180.52785216702614,180.52785216702614,180.52785216702614,181.49577816703822,1,,,,,,,,,,,,,,,,brian2,001,2025-08-18_14h47.11.180,tilt_staircase,2024.2.4,None,2025-08-18 14h47.22.881091 -0400,
,,,0,0,0,,,,,,,,,,,,,,,,,,0,0,0,0,181.50429212499876,,,,,,,,,,,,,,,,,,,,,,,,,,,,,,,,,,,,,,,,,,,,,,,,,,,,,,,,,,,,,,,,,,negc_poss,30,-15,15,-15,"[5, 2, 1, 0.5]",lin,1,1,8,2,17,96,down,0.5,1.0,1.0,181.49694474996068,181.50429212499876,181.99643120798282,181.99643120798282,182.071060749935,182.071060749935,182.071060749935,182.70664324995596,1,30,,,,,,,,,,,,,,,brian2,001,2025-08-18_14h47.11.180,tilt_staircase,2024.2.4,None,2025-08-18 14h47.22.881091 -0400,
,,,0,0,0,,,,,,,,,,,,,,,,,,0,0,0,0,182.71529362502042,,,,,,,,,,,,,,,,,,,,,,,,,,,,,,,,,,,,,,,,,,,,,,,,,,,,,,,,,,,,,,,,,,negc_noss,30,-15,15,-15,"[5, 2, 1, 0.5]",lin,1,1,8,4,17,97,down,0.5,-1.5,-1.5,182.707889082958,182.71529362502042,183.2036795419408,183.2036795419408,183.2762792080175,183.2762792080175,183.2762792080175,183.76601312495768,0,,,,,,,,,,,,,,,,brian2,001,2025-08-18_14h47.11.180,tilt_staircase,2024.2.4,None,2025-08-18 14h47.22.881091 -0400,
,,,0,0,0,,,,,,,,,,,,,,,,,,0,0,0,0,183.77137879200745,,,,,,,,,,,,,,,,,,,,,,,,,,,,,,,,,,,,,,,,,,,,,,,,,,,,,,,,,,,,,,,,,,posc_poss,30,15,15,-15,"[5, 2, 1, 0.5]",lin,1,1,8,3,17,98,down,0.5,0.5,0.5,183.7670100829564,183.77137879200745,184.26351195794996,184.26351195794996,184.33777108299546,184.33777108299546,184.34423820802476,184.82976187497843,0,30,,,,,,,,,,,,,,,brian2,001,2025-08-18_14h47.11.180,tilt_staircase,2024.2.4,None,2025-08-18 14h47.22.881091 -0400,
,,,0,0,0,,,,,,,,,,,,,,,,,,0,0,0,0,184.85453570797108,,,,,,,,,,,,,,,,,,,,,,,,,,,,,,,,,,,,,,,,,,,,,,,,,,,,,,,,,,,,,,,,,,posc_negs,30,15,15,-15,"[5, 2, 1, 0.5]",lin,1,1,8,1,17,99,up,0.5,-3.0,-3.0,184.83107674994972,184.85453570797108,185.32983854203485,185.32983854203485,185.40430179203395,185.40430179203395,185.40430179203395,186.55695670796558,1,-30,,,,,,,,,,,,,,,brian2,001,2025-08-18_14h47.11.180,tilt_staircase,2024.2.4,None,2025-08-18 14h47.22.881091 -0400,
,,,0,0,0,,,,,,,,,,,,,,,,,,0,0,0,0,186.56539737503044,,,,,,,,,,,,,,,,,,,,,,,,,,,,,,,,,,,,,,,,,,,,,,,,,,,,,,,,,,,,,,,,,,posc_noss,30,15,15,-15,"[5, 2, 1, 0.5]",lin,1,1,8,5,17,100,down,0.5,-1.0,-1.0,186.5583069579443,186.56539737503044,187.05394662497565,187.05394662497565,187.126918541966,187.126918541966,187.126918541966,187.55545429198537,0,,,,,,,,,,,,,,,,brian2,001,2025-08-18_14h47.11.180,tilt_staircase,2024.2.4,None,2025-08-18 14h47.22.881091 -0400,
,,,0,0,0,,,,,,,,,,,,,,,,,,0,0,0,0,187.5585558329476,,,,,,,,,,,,,,,,,,,,,,,,,,,,,,,,,,,,,,,,,,,,,,,,,,,,,,,,,,,,,,,,,,negc_negs,30,-15,15,-15,"[5, 2, 1, 0.5]",lin,1,1,8,0,17,101,down,0.5,-3.0,-3.0,187.55584016698413,187.5585558329476,188.0537257079268,188.0537257079268,188.12761737499386,188.12761737499386,188.12761737499386,188.64533741702326,0,-30,,,,,,,,,,,,,,,brian2,001,2025-08-18_14h47.11.180,tilt_staircase,2024.2.4,None,2025-08-18 14h47.22.881091 -0400,
,,,0,0,0,,,,,,,,,,,,,,,,,,0,0,0,0,188.65359912498388,,,,,,,,,,,,,,,,,,,,,,,,,,,,,,,,,,,,,,,,,,,,,,,,,,,,,,,,,,,,,,,,,,negc_noss,30,-15,15,-15,"[5, 2, 1, 0.5]",lin,1,1,8,4,18,102,up,0.5,-1.0,-1.0,188.6464347919682,188.65359912498388,189.14685895794537,189.14685895794537,189.22137533302885,189.22137533302885,189.22137533302885,189.7068142920034,0,,,,,,,,,,,,,,,,brian2,001,2025-08-18_14h47.11.180,tilt_staircase,2024.2.4,None,2025-08-18 14h47.22.881091 -0400,
,,,0,0,0,,,,,,,,,,,,,,,,,,0,0,0,0,189.71558824996464,,,,,,,,,,,,,,,,,,,,,,,,,,,,,,,,,,,,,,,,,,,,,,,,,,,,,,,,,,,,,,,,,,posc_noss,30,15,15,-15,"[5, 2, 1, 0.5]",lin,1,1,8,5,18,103,up,0.5,-0.5,-0.5,189.7083273329772,189.71558824996464,190.20346808293834,190.20346808293834,190.27768437494524,190.27768437494524,190.27768437494524,191.3891710420139,1,,,,,,,,,,,,,,,,brian2,001,2025-08-18_14h47.11.180,tilt_staircase,2024.2.4,None,2025-08-18 14h47.22.881091 -0400,
,,,0,0,0,,,,,,,,,,,,,,,,,,0,0,0,0,191.3944009579718,,,,,,,,,,,,,,,,,,,,,,,,,,,,,,,,,,,,,,,,,,,,,,,,,,,,,,,,,,,,,,,,,,negc_negs,30,-15,15,-15,"[5, 2, 1, 0.5]",lin,1,1,8,0,18,104,up,0.5,-2.5,-2.5,191.3902649169322,191.3944009579718,191.88690287503414,191.88690287503414,191.95842558296863,191.95842558296863,191.95842558296863,192.49005625001155,1,-30,,,,,,,,,,,,,,,brian2,001,2025-08-18_14h47.11.180,tilt_staircase,2024.2.4,None,2025-08-18 14h47.22.881091 -0400,
,,,0,0,0,,,,,,,,,,,,,,,,,,0,0,0,0,192.49923179193866,,,,,,,,,,,,,,,,,,,,,,,,,,,,,,,,,,,,,,,,,,,,,,,,,,,,,,,,,,,,,,,,,,negc_poss,30,-15,15,-15,"[5, 2, 1, 0.5]",lin,1,1,8,2,18,105,down,0.5,0.5,0.5,192.49172429193277,192.49923179193866,192.987806249992,192.987806249992,193.06100500002503,193.06100500002503,193.06100500002503,193.55663400003687,0,30,,,,,,,,,,,,,,,brian2,001,2025-08-18_14h47.11.180,tilt_staircase,2024.2.4,None,2025-08-18 14h47.22.881091 -0400,
,,,0,0,0,,,,,,,,,,,,,,,,,,0,0,0,0,193.56420558295213,,,,,,,,,,,,,,,,,,,,,,,,,,,,,,,,,,,,,,,,,,,,,,,,,,,,,,,,,,,,,,,,,,posc_poss,30,15,15,-15,"[5, 2, 1, 0.5]",lin,1,1,8,3,18,106,up,0.5,1.0,1.0,193.55777766695246,193.56420558295213,194.0534727500053,194.0534727500053,194.12665754195768,194.12665754195768,194.12665754195768,194.80663300002925,1,30,,,,,,,,,,,,,,,brian2,001,2025-08-18_14h47.11.180,tilt_staircase,2024.2.4,None,2025-08-18 14h47.22.881091 -0400,
,,,0,0,0,,,,,,,,,,,,,,,,,,0,0,0,0,194.81556587503292,,,,,,,,,,,,,,,,,,,,,,,,,,,,,,,,,,,,,,,,,,,,,,,,,,,,,,,,,,,,,,,,,,posc_negs,30,15,15,-15,"[5, 2, 1, 0.5]",lin,1,1,8,1,18,107,down,0.5,-3.5,-3.5,194.80823987501208,194.81556587503292,195.30349466693588,195.30349466693588,195.37766095797997,195.37766095797997,195.37766095797997,195.90663487499114,0,-30,,,,,,,,,,,,,,,brian2,001,2025-08-18_14h47.11.180,tilt_staircase,2024.2.4,None,2025-08-18 14h47.22.881091 -0400,
,,,0,0,0,,,,,,,,,,,,,,,,,,0,0,0,0,195.914615042042,,,,,,,,,,,,,,,,,,,,,,,,,,,,,,,,,,,,,,,,,,,,,,,,,,,,,,,,,,,,,,,,,,posc_noss,30,15,15,-15,"[5, 2, 1, 0.5]",lin,1,1,8,5,19,108,down,0.5,-1.0,-1.0,195.9077366249403,195.914615042042,196.40344766702037,196.40344766702037,196.47779679193627,196.47779679193627,196.47779679193627,196.9733658329351,0,,,,,,,,,,,,,,,,brian2,001,2025-08-18_14h47.11.180,tilt_staircase,2024.2.4,None,2025-08-18 14h47.22.881091 -0400,
,,,0,0,0,,,,,,,,,,,,,,,,,,0,0,0,0,196.98109162494075,,,,,,,,,,,,,,,,,,,,,,,,,,,,,,,,,,,,,,,,,,,,,,,,,,,,,,,,,,,,,,,,,,negc_poss,30,-15,15,-15,"[5, 2, 1, 0.5]",lin,1,1,8,2,19,109,up,0.5,1.0,1.0,196.97444216697477,196.98109162494075,197.47122191695962,197.47122191695962,197.54491862503346,197.54491862503346,197.54491862503346,198.1559196249582,0,30,,,,,,,,,,,,,,,brian2,001,2025-08-18_14h47.11.180,tilt_staircase,2024.2.4,None,2025-08-18 14h47.22.881091 -0400,
,,,0,0,0,,,,,,,,,,,,,,,,,,0,0,0,0,198.16583041695412,,,,,,,,,,,,,,,,,,,,,,,,,,,,,,,,,,,,,,,,,,,,,,,,,,,,,,,,,,,,,,,,,,posc_poss,30,15,15,-15,"[5, 2, 1, 0.5]",lin,1,1,8,3,19,110,down,0.5,0.5,0.5,198.15940383297857,198.16583041695412,198.65434350003488,198.65434350003488,198.72604112501722,198.72604112501722,198.72604112501722,199.22621383296791,1,30,,,,,,,,,,,,,,,brian2,001,2025-08-18_14h47.11.180,tilt_staircase,2024.2.4,None,2025-08-18 14h47.22.881091 -0400,
,,,0,0,0,,,,,,,,,,,,,,,,,,0,0,0,0,199.2381064579822,,,,,,,,,,,,,,,,,,,,,,,,,,,,,,,,,,,,,,,,,,,,,,,,,,,,,,,,,,,,,,,,,,posc_negs,30,15,15,-15,"[5, 2, 1, 0.5]",lin,1,1,8,1,19,111,up,0.5,-3.0,-3.0,199.22717187495437,199.2381064579822,199.72022854199167,199.72022854199167,199.79274266702123,199.79274266702123,199.80458695802372,200.47295537497848,1,-30,,,,,,,,,,,,,,,brian2,001,2025-08-18_14h47.11.180,tilt_staircase,2024.2.4,None,2025-08-18 14h47.22.881091 -0400,
,,,0,0,0,,,,,,,,,,,,,,,,,,0,0,0,0,200.4809702920029,,,,,,,,,,,,,,,,,,,,,,,,,,,,,,,,,,,,,,,,,,,,,,,,,,,,,,,,,,,,,,,,,,negc_noss,30,-15,15,-15,"[5, 2, 1, 0.5]",lin,1,1,8,4,19,112,up,0.5,-0.5,-0.5,200.4742013750365,200.4809702920029,200.97111704200506,200.97111704200506,201.04427329194732,201.04427329194732,201.04427329194732,202.16264366696123,1,,,,,,,,,,,,,,,,brian2,001,2025-08-18_14h47.11.180,tilt_staircase,2024.2.4,None,2025-08-18 14h47.22.881091 -0400,
,,,0,0,0,,,,,,,,,,,,,,,,,,0,0,0,0,202.17073941696435,,,,,,,,,,,,,,,,,,,,,,,,,,,,,,,,,,,,,,,,,,,,,,,,,,,,,,,,,,,,,,,,,,negc_negs,30,-15,15,-15,"[5, 2, 1, 0.5]",lin,1,1,8,0,19,113,down,0.5,-3.0,-3.0,202.1636518749874,202.17073941696435,202.66337500000373,202.66337500000373,202.73791262495797,202.73791262495797,202.73791262495797,203.47330433293246,0,-30,,,,,,,,,,,,,,,brian2,001,2025-08-18_14h47.11.180,tilt_staircase,2024.2.4,None,2025-08-18 14h47.22.881091 -0400,
,,,0,0,0,,,,,,,,,,,,,,,,,,0,0,0,0,203.48107254202478,,,,,,,,,,,,,,,,,,,,,,,,,,,,,,,,,,,,,,,,,,,,,,,,,,,,,,,,,,,,,,,,,,negc_noss,30,-15,15,-15,"[5, 2, 1, 0.5]",lin,1,1,8,4,20,114,down,0.5,-1.0,-1.0,203.47445587499533,203.48107254202478,203.97043912496883,203.97043912496883,204.04241845803335,204.04241845803335,204.04241845803335,204.51272224995773,0,,,,,,,,,,,,,,,,brian2,001,2025-08-18_14h47.11.180,tilt_staircase,2024.2.4,None,2025-08-18 14h47.22.881091 -0400,
,,,0,0,0,,,,,,,,,,,,,,,,,,0,0,0,0,204.52082837501075,,,,,,,,,,,,,,,,,,,,,,,,,,,,,,,,,,,,,,,,,,,,,,,,,,,,,,,,,,,,,,,,,,posc_negs,30,15,15,-15,"[5, 2, 1, 0.5]",lin,1,1,8,1,20,115,down,0.5,-3.5,-3.5,204.51402024994604,204.52082837501075,205.0129681249382,205.0129681249382,205.0879179169424,205.0879179169424,205.0879179169424,205.79534937499557,0,-30,,,,,,,,,,,,,,,brian2,001,2025-08-18_14h47.11.180,tilt_staircase,2024.2.4,None,2025-08-18 14h47.22.881091 -0400,
,,,0,0,0,,,,,,,,,,,,,,,,,,0,0,0,0,205.80334949993994,,,,,,,,,,,,,,,,,,,,,,,,,,,,,,,,,,,,,,,,,,,,,,,,,,,,,,,,,,,,,,,,,,posc_poss,30,15,15,-15,"[5, 2, 1, 0.5]",lin,1,1,8,3,20,116,down,0.5,0.0,0.0,205.79643254203256,205.80334949993994,206.29635966697242,206.29635966697242,206.3710432499647,206.3710432499647,206.3710432499647,206.82865454198327,0,30,,,,,,,,,,,,,,,brian2,001,2025-08-18_14h47.11.180,tilt_staircase,2024.2.4,None,2025-08-18 14h47.22.881091 -0400,
,,,0,0,0,,,,,,,,,,,,,,,,,,0,0,0,0,206.83670941693708,,,,,,,,,,,,,,,,,,,,,,,,,,,,,,,,,,,,,,,,,,,,,,,,,,,,,,,,,,,,,,,,,,posc_noss,30,15,15,-15,"[5, 2, 1, 0.5]",lin,1,1,8,5,20,117,up,0.5,-0.5,-0.5,206.82962483295705,206.83670941693708,207.3297521249624,207.3297521249624,207.404449417023,207.404449417023,207.404449417023,208.33996529201977,0,,,,,,,,,,,,,,,,brian2,001,2025-08-18_14h47.11.180,tilt_staircase,2024.2.4,None,2025-08-18 14h47.22.881091 -0400,
,,,0,0,0,,,,,,,,,,,,,,,,,,0,0,0,0,208.34890062501654,,,,,,,,,,,,,,,,,,,,,,,,,,,,,,,,,,,,,,,,,,,,,,,,,,,,,,,,,,,,,,,,,,negc_negs,30,-15,15,-15,"[5, 2, 1, 0.5]",lin,1,1,8,0,20,118,up,0.5,-2.5,-2.5,208.34163562499452,208.34890062501654,208.83702829200774,208.83702829200774,208.90980516700074,208.90980516700074,208.90980516700074,209.84799279202707,1,-30,,,,,,,,,,,,,,,brian2,001,2025-08-18_14h47.11.180,tilt_staircase,2024.2.4,None,2025-08-18 14h47.22.881091 -0400,
,,,0,0,0,,,,,,,,,,,,,,,,,,0,0,0,0,209.85359941702336,,,,,,,,,,,,,,,,,,,,,,,,,,,,,,,,,,,,,,,,,,,,,,,,,,,,,,,,,,,,,,,,,,negc_poss,30,-15,15,-15,"[5, 2, 1, 0.5]",lin,1,1,8,2,20,119,up,0.5,1.5,1.5,209.84909504198004,209.85359941702336,210.34634124999866,210.34634124999866,210.42108845803887,210.42108845803887,210.42662008292973,211.29058154195081,1,30,,,,,,,,,,,,,,,brian2,001,2025-08-18_14h47.11.180,tilt_staircase,2024.2.4,None,2025-08-18 14h47.22.881091 -0400,
,,,0,0,0,,,,,,,,,,,,,,,,,,0,0,0,0,211.29966333298944,,,,,,,,,,,,,,,,,,,,,,,,,,,,,,,,,,,,,,,,,,,,,,,,,,,,,,,,,,,,,,,,,,negc_poss,30,-15,15,-15,"[5, 2, 1, 0.5]",lin,1,1,8,2,21,120,down,0.5,1.0,1.0,211.29239366704132,211.29966333298944,211.7868191669695,211.7868191669695,211.86015512503218,211.86015512503218,211.86015512503218,212.4899185419781,1,30,,,,,,,,,,,,,,,brian2,001,2025-08-18_14h47.11.180,tilt_staircase,2024.2.4,None,2025-08-18 14h47.22.881091 -0400,
,,,0,0,0,,,,,,,,,,,,,,,,,,0,0,0,0,212.4976579999784,,,,,,,,,,,,,,,,,,,,,,,,,,,,,,,,,,,,,,,,,,,,,,,,,,,,,,,,,,,,,,,,,,posc_poss,30,15,15,-15,"[5, 2, 1, 0.5]",lin,1,1,8,3,21,121,up,0.5,0.5,0.5,212.49098541704006,212.4976579999784,212.9874159579631,212.9874159579631,213.06071558303665,213.06071558303665,213.06071558303665,213.6637901669601,0,30,,,,,,,,,,,,,,,brian2,001,2025-08-18_14h47.11.180,tilt_staircase,2024.2.4,None,2025-08-18 14h47.22.881091 -0400,
,,,0,0,0,,,,,,,,,,,,,,,,,,0,0,0,0,213.67416545795277,,,,,,,,,,,,,,,,,,,,,,,,,,,,,,,,,,,,,,,,,,,,,,,,,,,,,,,,,,,,,,,,,,negc_negs,30,-15,15,-15,"[5, 2, 1, 0.5]",lin,1,1,8,0,21,122,down,0.5,-3.0,-3.0,213.66551929200068,213.67416545795277,214.1631265829783,214.1631265829783,214.23792520794086,214.23792520794086,214.23792520794086,214.673366916948,1,-30,,,,,,,,,,,,,,,brian2,001,2025-08-18_14h47.11.180,tilt_staircase,2024.2.4,None,2025-08-18 14h47.22.881091 -0400,
,,,0,0,0,,,,,,,,,,,,,,,,,,0,0,0,0,214.68157408293337,,,,,,,,,,,,,,,,,,,,,,,,,,,,,,,,,,,,,,,,,,,,,,,,,,,,,,,,,,,,,,,,,,posc_negs,30,15,15,-15,"[5, 2, 1, 0.5]",lin,1,1,8,1,21,123,up,0.5,-3.0,-3.0,214.67477279203013,214.68157408293337,215.17074583296198,215.17074583296198,215.24365729198325,215.24365729198325,215.24365729198325,215.77395445795264,1,-30,,,,,,,,,,,,,,,brian2,001,2025-08-18_14h47.11.180,tilt_staircase,2024.2.4,None,2025-08-18 14h47.22.881091 -0400,
,,,0,0,0,,,,,,,,,,,,,,,,,,0,0,0,0,215.78183058300056,,,,,,,,,,,,,,,,,,,,,,,,,,,,,,,,,,,,,,,,,,,,,,,,,,,,,,,,,,,,,,,,,,posc_noss,30,15,15,-15,"[5, 2, 1, 0.5]",lin,1,1,8,5,21,124,up,0.5,0.0,0.0,215.77506399992853,215.78183058300056,216.27105716697406,216.27105716697406,216.34432883292902,216.34432883292902,216.34432883292902,216.94567537494004,1,,,,,,,,,,,,,,,,brian2,001,2025-08-18_14h47.11.180,tilt_staircase,2024.2.4,None,2025-08-18 14h47.22.881091 -0400,
,,,0,0,0,,,,,,,,,,,,,,,,,,0,0,0,0,216.95383662497625,,,,,,,,,,,,,,,,,,,,,,,,,,,,,,,,,,,,,,,,,,,,,,,,,,,,,,,,,,,,,,,,,,negc_noss,30,-15,15,-15,"[5, 2, 1, 0.5]",lin,1,1,8,4,21,125,up,0.5,-0.5,-0.5,216.9466827500146,216.95383662497625,217.44588429201394,217.44588429201394,217.5213562499266,217.5213562499266,217.5213562499266,218.33998083299957,1,,,,,,,,,,,,,,,,brian2,001,2025-08-18_14h47.11.180,tilt_staircase,2024.2.4,None,2025-08-18 14h47.22.881091 -0400,
,,,0,0,0,,,,,,,,,,,,,,,,,,0,0,0,0,218.34932079201099,,,,,,,,,,,,,,,,,,,,,,,,,,,,,,,,,,,,,,,,,,,,,,,,,,,,,,,,,,,,,,,,,,negc_noss,30,-15,15,-15,"[5, 2, 1, 0.5]",lin,1,1,8,4,22,126,down,0.5,-1.0,-1.0,218.34207787492778,218.34932079201099,218.83695050003007,218.83695050003007,218.91092366701923,218.91092366701923,218.91092366701923,219.31259666697588,0,,,,,,,,,,,,,,,,brian2,001,2025-08-18_14h47.11.180,tilt_staircase,2024.2.4,None,2025-08-18 14h47.22.881091 -0400,
,,,0,0,0,,,,,,,,,,,,,,,,,,0,0,0,0,219.32102287502494,,,,,,,,,,,,,,,,,,,,,,,,,,,,,,,,,,,,,,,,,,,,,,,,,,,,,,,,,,,,,,,,,,posc_negs,30,15,15,-15,"[5, 2, 1, 0.5]",lin,1,1,8,1,22,127,down,0.5,-3.5,-3.5,219.31398012500722,219.32102287502494,219.81360841693822,219.81360841693822,219.88812649995089,219.88812649995089,219.88812649995089,220.54015799995977,0,-30,,,,,,,,,,,,,,,brian2,001,2025-08-18_14h47.11.180,tilt_staircase,2024.2.4,None,2025-08-18 14h47.22.881091 -0400,
,,,0,0,0,,,,,,,,,,,,,,,,,,0,0,0,0,220.5488961249357,,,,,,,,,,,,,,,,,,,,,,,,,,,,,,,,,,,,,,,,,,,,,,,,,,,,,,,,,,,,,,,,,,posc_noss,30,15,15,-15,"[5, 2, 1, 0.5]",lin,1,1,8,5,22,128,down,0.5,-0.5,-0.5,220.5420209580334,220.5488961249357,221.03663566696923,221.03663566696923,221.11120362498332,221.11120362498332,221.11120362498332,221.7399837919511,0,,,,,,,,,,,,,,,,brian2,001,2025-08-18_14h47.11.180,tilt_staircase,2024.2.4,None,2025-08-18 14h47.22.881091 -0400,
,,,0,0,0,,,,,,,,,,,,,,,,,,0,0,0,0,221.74810691701714,,,,,,,,,,,,,,,,,,,,,,,,,,,,,,,,,,,,,,,,,,,,,,,,,,,,,,,,,,,,,,,,,,negc_poss,30,-15,15,-15,"[5, 2, 1, 0.5]",lin,1,1,8,2,22,129,down,0.5,0.5,0.5,221.74117329192813,221.74810691701714,222.23688250000123,222.23688250000123,222.31025420792866,222.31025420792866,222.31025420792866,223.2232683750335,1,30,,,,,,,,,,,,,,,brian2,001,2025-08-18_14h47.11.180,tilt_staircase,2024.2.4,None,2025-08-18 14h47.22.881091 -0400,
,,,0,0,0,,,,,,,,,,,,,,,,,,0,0,0,0,223.2315236669965,,,,,,,,,,,,,,,,,,,,,,,,,,,,,,,,,,,,,,,,,,,,,,,,,,,,,,,,,,,,,,,,,,posc_poss,30,15,15,-15,"[5, 2, 1, 0.5]",lin,1,1,8,3,22,130,up,0.5,1.0,1.0,223.22440566692967,223.2315236669965,223.7209842079319,223.7209842079319,223.79461949993856,223.79461949993856,223.79461949993856,226.21187374996953,0,30,,,,,,,,,,,,,,,brian2,001,2025-08-18_14h47.11.180,tilt_staircase,2024.2.4,None,2025-08-18 14h47.22.881091 -0400,
,,,0,0,0,,,,,,,,,,,,,,,,,,0,0,0,0,226.22000537498388,,,,,,,,,,,,,,,,,,,,,,,,,,,,,,,,,,,,,,,,,,,,,,,,,,,,,,,,,,,,,,,,,,negc_negs,30,-15,15,-15,"[5, 2, 1, 0.5]",lin,1,1,8,0,22,131,down,0.5,-3.5,-3.5,226.2129629169358,226.22000537498388,226.71242154203355,226.71242154203355,226.78655912494287,226.78655912494287,226.78655912494287,227.31209666701034,0,-30,,,,,,,,,,,,,,,brian2,001,2025-08-18_14h47.11.180,tilt_staircase,2024.2.4,None,2025-08-18 14h47.22.881091 -0400,
,,,0,0,0,,,,,,,,,,,,,,,,,,0,0,0,0,227.32011216692626,,,,,,,,,,,,,,,,,,,,,,,,,,,,,,,,,,,,,,,,,,,,,,,,,,,,,,,,,,,,,,,,,,posc_noss,30,15,15,-15,"[5, 2, 1, 0.5]",lin,1,1,8,5,23,132,up,0.5,0.0,0.0,227.31316687492654,227.32011216692626,227.81307104195002,227.81307104195002,227.88809958298225,227.88809958298225,227.88809958298225,228.5898152079899,1,,,,,,,,,,,,,,,,brian2,001,2025-08-18_14h47.11.180,tilt_staircase,2024.2.4,None,2025-08-18 14h47.22.881091 -0400,
,,,0,0,0,,,,,,,,,,,,,,,,,,0,0,0,0,228.59798183303792,,,,,,,,,,,,,,,,,,,,,,,,,,,,,,,,,,,,,,,,,,,,,,,,,,,,,,,,,,,,,,,,,,negc_poss,30,-15,15,-15,"[5, 2, 1, 0.5]",lin,1,1,8,2,23,133,down,0.5,0.0,0.0,228.59106704196893,228.59798183303792,229.08664799993858,229.08664799993858,229.16121670801658,229.16121670801658,229.16121670801658,229.59459470794536,0,30,,,,,,,,,,,,,,,brian2,001,2025-08-18_14h47.11.180,tilt_staircase,2024.2.4,None,2025-08-18 14h47.22.881091 -0400,
,,,0,0,0,,,,,,,,,,,,,,,,,,0,0,0,0,229.6032460000133,,,,,,,,,,,,,,,,,,,,,,,,,,,,,,,,,,,,,,,,,,,,,,,,,,,,,,,,,,,,,,,,,,posc_negs,30,15,15,-15,"[5, 2, 1, 0.5]",lin,1,1,8,1,23,134,up,0.5,-3.0,-3.0,229.5955972080119,229.6032460000133,230.09703770803753,230.09703770803753,230.17143837502226,230.17143837502226,230.17143837502226,231.7227502919268,1,-30,,,,,,,,,,,,,,,brian2,001,2025-08-18_14h47.11.180,tilt_staircase,2024.2.4,None,2025-08-18 14h47.22.881091 -0400,
,,,0,0,0,,,,,,,,,,,,,,,,,,0,0,0,0,231.73057558294386,,,,,,,,,,,,,,,,,,,,,,,,,,,,,,,,,,,,,,,,,,,,,,,,,,,,,,,,,,,,,,,,,,negc_noss,30,-15,15,-15,"[5, 2, 1, 0.5]",lin,1,1,8,4,23,135,up,0.5,-0.5,-0.5,231.72376324993093,231.73057558294386,232.2211312080035,232.2211312080035,232.29399000003468,232.29399000003468,232.29399000003468,232.75748224998824,0,,,,,,,,,,,,,,,,brian2,001,2025-08-18_14h47.11.180,tilt_staircase,2024.2.4,None,2025-08-18 14h47.22.881091 -0400,
,,,0,0,0,,,,,,,,,,,,,,,,,,0,0,0,0,232.76516991702374,,,,,,,,,,,,,,,,,,,,,,,,,,,,,,,,,,,,,,,,,,,,,,,,,,,,,,,,,,,,,,,,,,posc_poss,30,15,15,-15,"[5, 2, 1, 0.5]",lin,1,1,8,3,23,136,up,0.5,1.5,1.5,232.7585823329864,232.76516991702374,233.25329404196236,233.25329404196236,233.32766541698948,233.32766541698948,233.32766541698948,233.89381333300844,0,30,,,,,,,,,,,,,,,brian2,001,2025-08-18_14h47.11.180,tilt_staircase,2024.2.4,None,2025-08-18 14h47.22.881091 -0400,
,,,0,0,0,,,,,,,,,,,,,,,,,,0,0,0,0,233.90354708302766,,,,,,,,,,,,,,,,,,,,,,,,,,,,,,,,,,,,,,,,,,,,,,,,,,,,,,,,,,,,,,,,,,negc_negs,30,-15,15,-15,"[5, 2, 1, 0.5]",lin,1,1,8,0,23,137,up,0.5,-3.0,-3.0,233.8944592080079,233.90354708302766,234.38698104198556,234.38698104198556,234.46029554202687,234.46029554202687,234.4715289999731,235.1825677920133,0,-30,,,,,,,,,,,,,,,brian2,001,2025-08-18_14h47.11.180,tilt_staircase,2024.2.4,None,2025-08-18 14h47.22.881091 -0400,
,,,0,0,0,,,,,,,,,,,,,,,,,,0,0,0,0,235.18800829199608,,,,,,,,,,,,,,,,,,,,,,,,,,,,,,,,,,,,,,,,,,,,,,,,,,,,,,,,,,,,,,,,,,negc_poss,30,-15,15,-15,"[5, 2, 1, 0.5]",lin,1,1,8,2,24,138,up,0.5,0.5,0.5,235.18363908294123,235.18800829199608,235.6792327919975,235.6792327919975,235.7543998330366,235.7543998330366,235.7603634999832,236.34010379202664,0,30,,,,,,,,,,,,,,,brian2,001,2025-08-18_14h47.11.180,tilt_staircase,2024.2.4,None,2025-08-18 14h47.22.881091 -0400,
,,,0,0,0,,,,,,,,,,,,,,,,,,0,0,0,0,236.34825695795007,,,,,,,,,,,,,,,,,,,,,,,,,,,,,,,,,,,,,,,,,,,,,,,,,,,,,,,,,,,,,,,,,,posc_negs,30,15,15,-15,"[5, 2, 1, 0.5]",lin,1,1,8,1,24,139,down,0.5,-3.5,-3.5,236.34140470798593,236.34825695795007,236.83691437495872,236.83691437495872,236.91068366693798,236.91068366693798,236.91068366693798,237.53994462499395,0,-30,,,,,,,,,,,,,,,brian2,001,2025-08-18_14h47.11.180,tilt_staircase,2024.2.4,None,2025-08-18 14h47.22.881091 -0400,
,,,0,0,0,,,,,,,,,,,,,,,,,,0,0,0,0,237.5474967500195,,,,,,,,,,,,,,,,,,,,,,,,,,,,,,,,,,,,,,,,,,,,,,,,,,,,,,,,,,,,,,,,,,negc_negs,30,-15,15,-15,"[5, 2, 1, 0.5]",lin,1,1,8,0,24,140,up,0.5,-2.5,-2.5,237.5410112499958,237.5474967500195,238.0376603329787,238.0376603329787,238.1108171249507,238.1108171249507,238.1108171249507,238.77367066696752,0,-30,,,,,,,,,,,,,,,brian2,001,2025-08-18_14h47.11.180,tilt_staircase,2024.2.4,None,2025-08-18 14h47.22.881091 -0400,
,,,0,0,0,,,,,,,,,,,,,,,,,,0,0,0,0,238.7826466249535,,,,,,,,,,,,,,,,,,,,,,,,,,,,,,,,,,,,,,,,,,,,,,,,,,,,,,,,,,,,,,,,,,negc_noss,30,-15,15,-15,"[5, 2, 1, 0.5]",lin,1,1,8,4,24,141,up,0.5,0.0,0.0,238.77544420794584,238.7826466249535,239.27107487502508,239.27107487502508,239.3443480830174,239.3443480830174,239.3443480830174,244.4614301249385,1,,,,,,,,,,,,,,,,brian2,001,2025-08-18_14h47.11.180,tilt_staircase,2024.2.4,None,2025-08-18 14h47.22.881091 -0400,
,,,0,0,0,,,,,,,,,,,,,,,,,,0,0,0,0,244.46998570801225,,,,,,,,,,,,,,,,,,,,,,,,,,,,,,,,,,,,,,,,,,,,,,,,,,,,,,,,,,,,,,,,,,posc_poss,30,15,15,-15,"[5, 2, 1, 0.5]",lin,1,1,8,3,24,142,up,0.5,2.0,2.0,244.46250087500084,244.46998570801225,244.96331137500238,244.96331137500238,245.03768883296289,245.03768883296289,245.03768883296289,245.52330987493042,0,30,,,,,,,,,,,,,,,brian2,001,2025-08-18_14h47.11.180,tilt_staircase,2024.2.4,None,2025-08-18 14h47.22.881091 -0400,
,,,0,0,0,,,,,,,,,,,,,,,,,,0,0,0,0,245.53153045801446,,,,,,,,,,,,,,,,,,,,,,,,,,,,,,,,,,,,,,,,,,,,,,,,,,,,,,,,,,,,,,,,,,posc_noss,30,15,15,-15,"[5, 2, 1, 0.5]",lin,1,1,8,5,24,143,down,0.5,-0.5,-0.5,245.52472470793873,245.53153045801446,246.02109391696285,246.02109391696285,246.09388408297673,246.09388408297673,246.09388408297673,246.5605384579394,0,,,,,,,,,,,,,,,,brian2,001,2025-08-18_14h47.11.180,tilt_staircase,2024.2.4,None,2025-08-18 14h47.22.881091 -0400,
,,,0,0,0,,,,,,,,,,,,,,,,,,0,0,0,0,246.56987612496596,,,,,,,,,,,,,,,,,,,,,,,,,,,,,,,,,,,,,,,,,,,,,,,,,,,,,,,,,,,,,,,,,,posc_negs,30,15,15,-15,"[5, 2, 1, 0.5]",lin,1,1,8,1,25,144,up,0.5,-3.0,-3.0,246.56156158295926,246.56987612496596,247.05358187493403,247.05358187493403,247.1258875420317,247.1258875420317,247.13825754192658,247.63943700003438,0,-30,,,,,,,,,,,,,,,brian2,001,2025-08-18_14h47.11.180,tilt_staircase,2024.2.4,None,2025-08-18 14h47.22.881091 -0400,
,,,0,0,0,,,,,,,,,,,,,,,,,,0,0,0,0,247.64736149995588,,,,,,,,,,,,,,,,,,,,,,,,,,,,,,,,,,,,,,,,,,,,,,,,,,,,,,,,,,,,,,,,,,negc_poss,30,-15,15,-15,"[5, 2, 1, 0.5]",lin,1,1,8,2,25,145,up,0.5,1.0,1.0,247.6407333749812,247.64736149995588,248.13665558292996,248.13665558292996,248.21105108293705,248.21105108293705,248.21105108293705,248.98950849997345,1,30,,,,,,,,,,,,,,,brian2,001,2025-08-18_14h47.11.180,tilt_staircase,2024.2.4,None,2025-08-18 14h47.22.881091 -0400,
,,,0,0,0,,,,,,,,,,,,,,,,,,0,0,0,0,248.9977254170226,,,,,,,,,,,,,,,,,,,,,,,,,,,,,,,,,,,,,,,,,,,,,,,,,,,,,,,,,,,,,,,,,,posc_poss,30,15,15,-15,"[5, 2, 1, 0.5]",lin,1,1,8,3,25,146,up,0.5,2.5,2.5,248.99059395794757,248.9977254170226,249.48660149995703,249.48660149995703,249.56119129201397,249.56119129201397,249.56119129201397,250.12362233293243,1,30,,,,,,,,,,,,,,,brian2,001,2025-08-18_14h47.11.180,tilt_staircase,2024.2.4,None,2025-08-18 14h47.22.881091 -0400,
,,,0,0,0,,,,,,,,,,,,,,,,,,0,0,0,0,250.1317128749797,,,,,,,,,,,,,,,,,,,,,,,,,,,,,,,,,,,,,,,,,,,,,,,,,,,,,,,,,,,,,,,,,,negc_noss,30,-15,15,-15,"[5, 2, 1, 0.5]",lin,1,1,8,4,25,147,down,0.5,-0.5,-0.5,250.124960541958,250.1317128749797,250.6204760420369,250.6204760420369,250.69386649993248,250.69386649993248,250.69386649993248,251.30955562496092,0,,,,,,,,,,,,,,,,brian2,001,2025-08-18_14h47.11.180,tilt_staircase,2024.2.4,None,2025-08-18 14h47.22.881091 -0400,
,,,0,0,0,,,,,,,,,,,,,,,,,,0,0,0,0,251.31987387500703,,,,,,,,,,,,,,,,,,,,,,,,,,,,,,,,,,,,,,,,,,,,,,,,,,,,,,,,,,,,,,,,,,negc_negs,30,-15,15,-15,"[5, 2, 1, 0.5]",lin,1,1,8,0,25,148,up,0.5,-2.0,-2.0,251.3106757500209,251.31987387500703,251.80343995802104,251.80343995802104,251.87427329202183,251.87427329202183,251.8870440829778,252.75640687497798,0,-30,,,,,,,,,,,,,,,brian2,001,2025-08-18_14h47.11.180,tilt_staircase,2024.2.4,None,2025-08-18 14h47.22.881091 -0400,
,,,0,0,0,,,,,,,,,,,,,,,,,,0,0,0,0,252.76466312503908,,,,,,,,,,,,,,,,,,,,,,,,,,,,,,,,,,,,,,,,,,,,,,,,,,,,,,,,,,,,,,,,,,posc_noss,30,15,15,-15,"[5, 2, 1, 0.5]",lin,1,1,8,5,25,149,up,0.5,0.0,0.0,252.757591499947,252.76466312503908,253.25328754202928,253.25328754202928,253.32748283294495,253.32748283294495,253.32748283294495,254.11253529193345,0,,,,,,,,,,,,,,,,brian2,001,2025-08-18_14h47.11.180,tilt_staircase,2024.2.4,None,2025-08-18 14h47.22.881091 -0400,
,,,1,0,1,,,,,,,,,,,,,,,,,,1,0,1,0,292.2506609580014,,,,,,,,,,,,,,,,,,,,,,,,,,,,,,,,,,,,,,,,,,,,,,,,,,,,,,,,,,,,,,,,,,negc_poss,30,-15,15,-15,"[5, 2, 1, 0.5]",lin,1,1,8,2,1,0,start,5,-15,-15,292.24524816696066,292.2506609580014,292.70317566697486,292.70317566697486,292.7766777499346,292.7766777499346,292.7766777499346,293.32897416700143,0,30,254.11275637499057,254.12344145798124,254.12344145798124,292.20637691696174,space,38.075830542016774,None,,,,,,,,brian2,001,2025-08-18_14h47.11.180,tilt_staircase,2024.2.4,None,2025-08-18 14h47.22.881091 -0400,
,,,1,0,1,,,,,,,,,,,,,,,,,,1,0,1,0,293.3375104169827,,,,,,,,,,,,,,,,,,,,,,,,,,,,,,,,,,,,,,,,,,,,,,,,,,,,,,,,,,,,,,,,,,posc_negs,30,15,15,-15,"[5, 2, 1, 0.5]",lin,1,1,8,1,1,1,start,5,15,15,293.33022404194344,293.3375104169827,293.8383208749583,293.8383208749583,293.9095042500412,293.9095042500412,293.9095042500412,294.322435708018,1,-30,,,,,,,,,,,,,,,brian2,001,2025-08-18_14h47.11.180,tilt_staircase,2024.2.4,None,2025-08-18 14h47.22.881091 -0400,
,,,1,0,1,,,,,,,,,,,,,,,,,,1,0,1,0,294.3319238330005,,,,,,,,,,,,,,,,,,,,,,,,,,,,,,,,,,,,,,,,,,,,,,,,,,,,,,,,,,,,,,,,,,posc_noss,30,15,15,-15,"[5, 2, 1, 0.5]",lin,1,1,8,5,1,2,start,5,15,15,294.323518707999,294.3319238330005,294.82073058292735,294.82073058292735,294.89457366697025,294.89457366697025,294.89457366697025,295.262110791984,1,,,,,,,,,,,,,,,,brian2,001,2025-08-18_14h47.11.180,tilt_staircase,2024.2.4,None,2025-08-18 14h47.22.881091 -0400,
,,,1,0,1,,,,,,,,,,,,,,,,,,1,0,1,0,295.2702751249308,,,,,,,,,,,,,,,,,,,,,,,,,,,,,,,,,,,,,,,,,,,,,,,,,,,,,,,,,,,,,,,,,,negc_noss,30,-15,15,-15,"[5, 2, 1, 0.5]",lin,1,1,8,4,1,3,start,5,-15,-15,295.2632716250373,295.2702751249308,295.76283449993934,295.76283449993934,295.83785545802675,295.83785545802675,295.83785545802675,296.1617096669506,0,,,,,,,,,,,,,,,,brian2,001,2025-08-18_14h47.11.180,tilt_staircase,2024.2.4,None,2025-08-18 14h47.22.881091 -0400,
,,,1,0,1,,,,,,,,,,,,,,,,,,1,0,1,0,296.16969466698356,,,,,,,,,,,,,,,,,,,,,,,,,,,,,,,,,,,,,,,,,,,,,,,,,,,,,,,,,,,,,,,,,,posc_poss,30,15,15,-15,"[5, 2, 1, 0.5]",lin,1,1,8,3,1,4,start,5,15,15,296.16268583294004,296.16969466698356,296.6622960829409,296.6622960829409,296.73784029192757,296.73784029192757,296.73784029192757,297.0901372919325,1,30,,,,,,,,,,,,,,,brian2,001,2025-08-18_14h47.11.180,tilt_staircase,2024.2.4,None,2025-08-18 14h47.22.881091 -0400,
,,,1,0,1,,,,,,,,,,,,,,,,,,1,0,1,0,297.09872583299875,,,,,,,,,,,,,,,,,,,,,,,,,,,,,,,,,,,,,,,,,,,,,,,,,,,,,,,,,,,,,,,,,,negc_negs,30,-15,15,-15,"[5, 2, 1, 0.5]",lin,1,1,8,0,1,5,start,5,-15,-15,297.0917635000078,297.09872583299875,297.5865216249367,297.5865216249367,297.6604005419649,297.6604005419649,297.6604005419649,298.0396547500277,0,-30,,,,,,,,,,,,,,,brian2,001,2025-08-18_14h47.11.180,tilt_staircase,2024.2.4,None,2025-08-18 14h47.22.881091 -0400,
,,,1,0,1,,,,,,,,,,,,,,,,,,1,0,1,0,298.0479082079837,,,,,,,,,,,,,,,,,,,,,,,,,,,,,,,,,,,,,,,,,,,,,,,,,,,,,,,,,,,,,,,,,,negc_noss,30,-15,15,-15,"[5, 2, 1, 0.5]",lin,1,1,8,4,2,6,up,5,-10,-10,298.0413885420421,298.0479082079837,298.5374353750376,298.5374353750376,298.6103427079506,298.6103427079506,298.6103427079506,298.97299787495285,0,,,,,,,,,,,,,,,,brian2,001,2025-08-18_14h47.11.180,tilt_staircase,2024.2.4,None,2025-08-18 14h47.22.881091 -0400,
,,,1,0,1,,,,,,,,,,,,,,,,,,1,0,1,0,298.9823125420371,,,,,,,,,,,,,,,,,,,,,,,,,,,,,,,,,,,,,,,,,,,,,,,,,,,,,,,,,,,,,,,,,,posc_negs,30,15,15,-15,"[5, 2, 1, 0.5]",lin,1,1,8,1,2,7,down,5,10,10,298.9749573749723,298.9823125420371,299.4709195829928,299.4709195829928,299.54388720798306,299.54388720798306,299.54388720798306,299.9106755419634,1,-30,,,,,,,,,,,,,,,brian2,001,2025-08-18_14h47.11.180,tilt_staircase,2024.2.4,None,2025-08-18 14h47.22.881091 -0400,
,,,1,0,1,,,,,,,,,,,,,,,,,,1,0,1,0,299.9196553330403,,,,,,,,,,,,,,,,,,,,,,,,,,,,,,,,,,,,,,,,,,,,,,,,,,,,,,,,,,,,,,,,,,negc_negs,30,-15,15,-15,"[5, 2, 1, 0.5]",lin,1,1,8,0,2,8,up,5,-10,-10,299.91173049993813,299.9196553330403,300.403334041941,300.403334041941,300.4764072500402,300.4764072500402,300.4875077919569,300.9562413749518,0,-30,,,,,,,,,,,,,,,brian2,001,2025-08-18_14h47.11.180,tilt_staircase,2024.2.4,None,2025-08-18 14h47.22.881091 -0400,
,,,1,0,1,,,,,,,,,,,,,,,,,,1,0,1,0,300.9641380419489,,,,,,,,,,,,,,,,,,,,,,,,,,,,,,,,,,,,,,,,,,,,,,,,,,,,,,,,,,,,,,,,,,negc_poss,30,-15,15,-15,"[5, 2, 1, 0.5]",lin,1,1,8,2,2,9,up,5,-10,-10,300.9574588329997,300.9641380419489,301.45363250002265,301.45363250002265,301.52715600002557,301.52715600002557,301.52715600002557,301.93951208295766,0,30,,,,,,,,,,,,,,,brian2,001,2025-08-18_14h47.11.180,tilt_staircase,2024.2.4,None,2025-08-18 14h47.22.881091 -0400,
,,,1,0,1,,,,,,,,,,,,,,,,,,1,0,1,0,301.9473730829777,,,,,,,,,,,,,,,,,,,,,,,,,,,,,,,,,,,,,,,,,,,,,,,,,,,,,,,,,,,,,,,,,,posc_poss,30,15,15,-15,"[5, 2, 1, 0.5]",lin,1,1,8,3,2,10,down,5,10,10,301.94055874994956,301.9473730829777,302.4374504579464,302.4374504579464,302.5105879580369,302.5105879580369,302.5105879580369,302.93948062497657,1,30,,,,,,,,,,,,,,,brian2,001,2025-08-18_14h47.11.180,tilt_staircase,2024.2.4,None,2025-08-18 14h47.22.881091 -0400,
,,,1,0,1,,,,,,,,,,,,,,,,,,1,0,1,0,302.9473604579689,,,,,,,,,,,,,,,,,,,,,,,,,,,,,,,,,,,,,,,,,,,,,,,,,,,,,,,,,,,,,,,,,,posc_noss,30,15,15,-15,"[5, 2, 1, 0.5]",lin,1,1,8,5,2,11,down,5,10,10,302.94067454198375,302.9473604579689,303.4364173329668,303.4364173329668,303.51120183302555,303.51120183302555,303.51120183302555,303.9409421249293,1,,,,,,,,,,,,,,,,brian2,001,2025-08-18_14h47.11.180,tilt_staircase,2024.2.4,None,2025-08-18 14h47.22.881091 -0400,
,,,1,0,1,,,,,,,,,,,,,,,,,,1,0,1,0,303.94852162501775,,,,,,,,,,,,,,,,,,,,,,,,,,,,,,,,,,,,,,,,,,,,,,,,,,,,,,,,,,,,,,,,,,negc_noss,30,-15,15,-15,"[5, 2, 1, 0.5]",lin,1,1,8,4,3,12,up,5,-5,-5,303.9421548329992,303.94852162501775,304.4365403329721,304.4365403329721,304.51076433295384,304.51076433295384,304.51076433295384,304.8892522919923,0,,,,,,,,,,,,,,,,brian2,001,2025-08-18_14h47.11.180,tilt_staircase,2024.2.4,None,2025-08-18 14h47.22.881091 -0400,
,,,1,0,1,,,,,,,,,,,,,,,,,,1,0,1,0,304.8968938749749,,,,,,,,,,,,,,,,,,,,,,,,,,,,,,,,,,,,,,,,,,,,,,,,,,,,,,,,,,,,,,,,,,posc_noss,30,15,15,-15,"[5, 2, 1, 0.5]",lin,1,1,8,5,3,13,down,5,5,5,304.89026483299676,304.8968938749749,305.38748212496284,305.38748212496284,305.4603018750204,305.4603018750204,305.4603018750204,305.7952841250226,1,,,,,,,,,,,,,,,,brian2,001,2025-08-18_14h47.11.180,tilt_staircase,2024.2.4,None,2025-08-18 14h47.22.881091 -0400,
,,,1,0,1,,,,,,,,,,,,,,,,,,1,0,1,0,305.80322883301415,,,,,,,,,,,,,,,,,,,,,,,,,,,,,,,,,,,,,,,,,,,,,,,,,,,,,,,,,,,,,,,,,,posc_negs,30,15,15,-15,"[5, 2, 1, 0.5]",lin,1,1,8,1,3,14,down,5,5,5,305.79630095802713,305.80322883301415,306.29517904203385,306.29517904203385,306.3711916669272,306.3711916669272,306.3711916669272,306.76594920794014,1,-30,,,,,,,,,,,,,,,brian2,001,2025-08-18_14h47.11.180,tilt_staircase,2024.2.4,None,2025-08-18 14h47.22.881091 -0400,
,,,1,0,1,,,,,,,,,,,,,,,,,,1,0,1,0,306.78753908292856,,,,,,,,,,,,,,,,,,,,,,,,,,,,,,,,,,,,,,,,,,,,,,,,,,,,,,,,,,,,,,,,,,negc_negs,30,-15,15,-15,"[5, 2, 1, 0.5]",lin,1,1,8,0,3,15,up,5,-5,-5,306.7669247499434,306.78753908292856,307.2625305419788,307.2625305419788,307.337587374961,307.337587374961,307.34388091694564,307.84009758301545,0,-30,,,,,,,,,,,,,,,brian2,001,2025-08-18_14h47.11.180,tilt_staircase,2024.2.4,None,2025-08-18 14h47.22.881091 -0400,
,,,1,0,1,,,,,,,,,,,,,,,,,,1,0,1,0,307.84812899993267,,,,,,,,,,,,,,,,,,,,,,,,,,,,,,,,,,,,,,,,,,,,,,,,,,,,,,,,,,,,,,,,,,negc_poss,30,-15,15,-15,"[5, 2, 1, 0.5]",lin,1,1,8,2,3,16,up,5,-5,-5,307.8412334169261,307.84812899993267,308.33695991698187,308.33695991698187,308.4104547499446,308.4104547499446,308.4104547499446,308.8563026669435,0,30,,,,,,,,,,,,,,,brian2,001,2025-08-18_14h47.11.180,tilt_staircase,2024.2.4,None,2025-08-18 14h47.22.881091 -0400,
,,,1,0,1,,,,,,,,,,,,,,,,,,1,0,1,0,308.8650498329662,,,,,,,,,,,,,,,,,,,,,,,,,,,,,,,,,,,,,,,,,,,,,,,,,,,,,,,,,,,,,,,,,,posc_poss,30,15,15,-15,"[5, 2, 1, 0.5]",lin,1,1,8,3,3,17,down,5,5,5,308.8576119999634,308.8650498329662,309.3540435419418,309.3540435419418,309.4271885829512,309.4271885829512,309.4271885829512,309.85546600003727,1,30,,,,,,,,,,,,,,,brian2,001,2025-08-18_14h47.11.180,tilt_staircase,2024.2.4,None,2025-08-18 14h47.22.881091 -0400,
,,,1,0,1,,,,,,,,,,,,,,,,,,1,0,1,0,309.8632893329486,,,,,,,,,,,,,,,,,,,,,,,,,,,,,,,,,,,,,,,,,,,,,,,,,,,,,,,,,,,,,,,,,,negc_noss,30,-15,15,-15,"[5, 2, 1, 0.5]",lin,1,1,8,4,4,18,up,5,0,0,309.8564710000064,309.8632893329486,310.354666374973,310.354666374973,310.4267923749285,310.4267923749285,310.4267923749285,312.0794205419952,0,,,,,,,,,,,,,,,,brian2,001,2025-08-18_14h47.11.180,tilt_staircase,2024.2.4,None,2025-08-18 14h47.22.881091 -0400,
,,,1,0,1,,,,,,,,,,,,,,,,,,1,0,1,0,312.09024095803034,,,,,,,,,,,,,,,,,,,,,,,,,,,,,,,,,,,,,,,,,,,,,,,,,,,,,,,,,,,,,,,,,,posc_poss,30,15,15,-15,"[5, 2, 1, 0.5]",lin,1,1,8,3,4,19,down,5,0,0,312.0806974580046,312.09024095803034,312.5785102919908,312.5785102919908,312.65403987502214,312.65403987502214,312.65403987502214,313.1957135000266,0,30,,,,,,,,,,,,,,,brian2,001,2025-08-18_14h47.11.180,tilt_staircase,2024.2.4,None,2025-08-18 14h47.22.881091 -0400,
,,,1,0,1,,,,,,,,,,,,,,,,,,1,0,1,0,313.2038878329331,,,,,,,,,,,,,,,,,,,,,,,,,,,,,,,,,,,,,,,,,,,,,,,,,,,,,,,,,,,,,,,,,,posc_negs,30,15,15,-15,"[5, 2, 1, 0.5]",lin,1,1,8,1,4,20,down,5,0,0,313.19681274995673,313.2038878329331,313.6952600419754,313.6952600419754,313.771004499984,313.771004499984,313.771004499984,314.1946554579772,1,-30,,,,,,,,,,,,,,,brian2,001,2025-08-18_14h47.11.180,tilt_staircase,2024.2.4,None,2025-08-18 14h47.22.881091 -0400,
,,,1,0,1,,,,,,,,,,,,,,,,,,1,0,1,0,314.2030384580139,,,,,,,,,,,,,,,,,,,,,,,,,,,,,,,,,,,,,,,,,,,,,,,,,,,,,,,,,,,,,,,,,,negc_poss,30,-15,15,-15,"[5, 2, 1, 0.5]",lin,1,1,8,2,4,21,up,5,0,0,314.1957159580197,314.2030384580139,314.6960591250099,314.6960591250099,314.7709637079388,314.7709637079388,314.7709637079388,315.17802904197015,0,30,,,,,,,,,,,,,,,brian2,001,2025-08-18_14h47.11.180,tilt_staircase,2024.2.4,None,2025-08-18 14h47.22.881091 -0400,
,,,1,0,1,,,,,,,,,,,,,,,,,,1,0,1,0,315.18639029201586,,,,,,,,,,,,,,,,,,,,,,,,,,,,,,,,,,,,,,,,,,,,,,,,,,,,,,,,,,,,,,,,,,posc_noss,30,15,15,-15,"[5, 2, 1, 0.5]",lin,1,1,8,5,4,22,down,5,0,0,315.17905470798723,315.18639029201586,315.67830454197247,315.67830454197247,315.7541079579387,315.7541079579387,315.7541079579387,316.4957601670176,1,,,,,,,,,,,,,,,,brian2,001,2025-08-18_14h47.11.180,tilt_staircase,2024.2.4,None,2025-08-18 14h47.22.881091 -0400,
,,,1,0,1,,,,,,,,,,,,,,,,,,1,0,1,0,316.50406358297914,,,,,,,,,,,,,,,,,,,,,,,,,,,,,,,,,,,,,,,,,,,,,,,,,,,,,,,,,,,,,,,,,,negc_negs,30,-15,15,-15,"[5, 2, 1, 0.5]",lin,1,1,8,0,4,23,up,5,0,0,316.4970656669466,316.50406358297914,316.995989750023,316.995989750023,317.0709809579421,317.0709809579421,317.0709809579421,317.53057900001295,1,-30,,,,,,,,,,,,,,,brian2,001,2025-08-18_14h47.11.180,tilt_staircase,2024.2.4,None,2025-08-18 14h47.22.881091 -0400,
,,,1,0,1,,,,,,,,,,,,,,,,,,1,0,1,0,317.53641754202545,,,,,,,,,,,,,,,,,,,,,,,,,,,,,,,,,,,,,,,,,,,,,,,,,,,,,,,,,,,,,,,,,,negc_negs,30,-15,15,-15,"[5, 2, 1, 0.5]",lin,1,1,8,0,5,24,down,2,-2,-2,317.5316758749541,317.53641754202545,318.0293301669881,318.0293301669881,318.1042167079868,318.1042167079868,318.1042167079868,318.60655183298513,1,-30,,,,,,,,,,,,,,,brian2,001,2025-08-18_14h47.11.180,tilt_staircase,2024.2.4,None,2025-08-18 14h47.22.881091 -0400,
,,,1,0,1,,,,,,,,,,,,,,,,,,1,0,1,0,318.615062457975,,,,,,,,,,,,,,,,,,,,,,,,,,,,,,,,,,,,,,,,,,,,,,,,,,,,,,,,,,,,,,,,,,negc_noss,30,-15,15,-15,"[5, 2, 1, 0.5]",lin,1,1,8,4,5,25,up,5,5,5,318.60825249995105,318.615062457975,319.10369837493636,319.10369837493636,319.17742012499366,319.17742012499366,319.17742012499366,319.9444043750409,1,,,,,,,,,,,,,,,,brian2,001,2025-08-18_14h47.11.180,tilt_staircase,2024.2.4,None,2025-08-18 14h47.22.881091 -0400,
,,,1,0,1,,,,,,,,,,,,,,,,,,1,0,1,0,319.95297350001056,,,,,,,,,,,,,,,,,,,,,,,,,,,,,,,,,,,,,,,,,,,,,,,,,,,,,,,,,,,,,,,,,,negc_poss,30,-15,15,-15,"[5, 2, 1, 0.5]",lin,1,1,8,2,5,26,up,5,5,5,319.94547133299056,319.95297350001056,320.4457478330005,320.4457478330005,320.5212498329347,320.5212498329347,320.5212498329347,321.0787712499732,1,30,,,,,,,,,,,,,,,brian2,001,2025-08-18_14h47.11.180,tilt_staircase,2024.2.4,None,2025-08-18 14h47.22.881091 -0400,
,,,1,0,1,,,,,,,,,,,,,,,,,,1,0,1,0,321.08708012499847,,,,,,,,,,,,,,,,,,,,,,,,,,,,,,,,,,,,,,,,,,,,,,,,,,,,,,,,,,,,,,,,,,posc_negs,30,15,15,-15,"[5, 2, 1, 0.5]",lin,1,1,8,1,5,27,down,5,-5,-5,321.08004341693595,321.08708012499847,321.57914904202335,321.57914904202335,321.6541154580191,321.6541154580191,321.6541154580191,322.1399860830279,0,-30,,,,,,,,,,,,,,,brian2,001,2025-08-18_14h47.11.180,tilt_staircase,2024.2.4,None,2025-08-18 14h47.22.881091 -0400,
,,,1,0,1,,,,,,,,,,,,,,,,,,1,0,1,0,322.1485535829561,,,,,,,,,,,,,,,,,,,,,,,,,,,,,,,,,,,,,,,,,,,,,,,,,,,,,,,,,,,,,,,,,,posc_noss,30,15,15,-15,"[5, 2, 1, 0.5]",lin,1,1,8,5,5,28,down,5,-5,-5,322.1417039169464,322.1485535829561,322.6363917919807,322.6363917919807,322.71042849996593,322.71042849996593,322.71042849996593,323.1220125419786,0,,,,,,,,,,,,,,,,brian2,001,2025-08-18_14h47.11.180,tilt_staircase,2024.2.4,None,2025-08-18 14h47.22.881091 -0400,
,,,1,0,1,,,,,,,,,,,,,,,,,,1,0,1,0,323.12977816700004,,,,,,,,,,,,,,,,,,,,,,,,,,,,,,,,,,,,,,,,,,,,,,,,,,,,,,,,,,,,,,,,,,posc_poss,30,15,15,-15,"[5, 2, 1, 0.5]",lin,1,1,8,3,5,29,up,2,2,2,323.1230018750066,323.12977816700004,323.6208640419645,323.6208640419645,323.6935054999776,323.6935054999776,323.6935054999776,324.25633929204196,1,30,,,,,,,,,,,,,,,brian2,001,2025-08-18_14h47.11.180,tilt_staircase,2024.2.4,None,2025-08-18 14h47.22.881091 -0400,
,,,1,0,1,,,,,,,,,,,,,,,,,,1,0,1,0,324.26460912497714,,,,,,,,,,,,,,,,,,,,,,,,,,,,,,,,,,,,,,,,,,,,,,,,,,,,,,,,,,,,,,,,,,negc_negs,30,-15,15,-15,"[5, 2, 1, 0.5]",lin,1,1,8,0,6,30,down,2,-4,-4,324.2575440419605,324.26460912497714,324.754197207978,324.754197207978,324.8274058329407,324.8274058329407,324.8274058329407,325.50580024998635,0,-30,,,,,,,,,,,,,,,brian2,001,2025-08-18_14h47.11.180,tilt_staircase,2024.2.4,None,2025-08-18 14h47.22.881091 -0400,
,,,1,0,1,,,,,,,,,,,,,,,,,,1,0,1,0,325.51345045794733,,,,,,,,,,,,,,,,,,,,,,,,,,,,,,,,,,,,,,,,,,,,,,,,,,,,,,,,,,,,,,,,,,posc_noss,30,15,15,-15,"[5, 2, 1, 0.5]",lin,1,1,8,5,6,31,up,2,-3,-3,325.50679324998055,325.51345045794733,326.00365462503396,326.00365462503396,326.07663270796183,326.07663270796183,326.07663270796183,326.5122321250383,0,,,,,,,,,,,,,,,,brian2,001,2025-08-18_14h47.11.180,tilt_staircase,2024.2.4,None,2025-08-18 14h47.22.881091 -0400,
,,,1,0,1,,,,,,,,,,,,,,,,,,1,0,1,0,326.5202154170256,,,,,,,,,,,,,,,,,,,,,,,,,,,,,,,,,,,,,,,,,,,,,,,,,,,,,,,,,,,,,,,,,,posc_poss,30,15,15,-15,"[5, 2, 1, 0.5]",lin,1,1,8,3,6,32,down,1,1,1,326.5133923749672,326.5202154170256,327.0132140000351,327.0132140000351,327.0875165000325,327.0875165000325,327.0875165000325,327.57300483295694,1,30,,,,,,,,,,,,,,,brian2,001,2025-08-18_14h47.11.180,tilt_staircase,2024.2.4,None,2025-08-18 14h47.22.881091 -0400,
,,,1,0,1,,,,,,,,,,,,,,,,,,1,0,1,0,327.5813767919317,,,,,,,,,,,,,,,,,,,,,,,,,,,,,,,,,,,,,,,,,,,,,,,,,,,,,,,,,,,,,,,,,,negc_poss,30,-15,15,-15,"[5, 2, 1, 0.5]",lin,1,1,8,2,6,33,down,2,3,3,327.5743277500151,327.5813767919317,328.06987758295145,328.06987758295145,328.144656999968,328.144656999968,328.144656999968,328.65643712494057,1,30,,,,,,,,,,,,,,,brian2,001,2025-08-18_14h47.11.180,tilt_staircase,2024.2.4,None,2025-08-18 14h47.22.881091 -0400,
,,,1,0,1,,,,,,,,,,,,,,,,,,1,0,1,0,328.6650615000399,,,,,,,,,,,,,,,,,,,,,,,,,,,,,,,,,,,,,,,,,,,,,,,,,,,,,,,,,,,,,,,,,,posc_negs,30,15,15,-15,"[5, 2, 1, 0.5]",lin,1,1,8,1,6,34,up,2,-3,-3,328.65776329196524,328.6650615000399,329.1530661670258,329.1530661670258,329.227163417032,329.227163417032,329.227163417032,329.9892114580143,0,-30,,,,,,,,,,,,,,,brian2,001,2025-08-18_14h47.11.180,tilt_staircase,2024.2.4,None,2025-08-18 14h47.22.881091 -0400,
,,,1,0,1,,,,,,,,,,,,,,,,,,1,0,1,0,329.9970577079803,,,,,,,,,,,,,,,,,,,,,,,,,,,,,,,,,,,,,,,,,,,,,,,,,,,,,,,,,,,,,,,,,,negc_noss,30,-15,15,-15,"[5, 2, 1, 0.5]",lin,1,1,8,4,6,35,down,2,3,3,329.9902599999914,329.9970577079803,330.4870881669922,330.4870881669922,330.5604762500152,330.5604762500152,330.5604762500152,331.0451837499859,1,,,,,,,,,,,,,,,,brian2,001,2025-08-18_14h47.11.180,tilt_staircase,2024.2.4,None,2025-08-18 14h47.22.881091 -0400,
,,,1,0,1,,,,,,,,,,,,,,,,,,1,0,1,0,331.0531331249513,,,,,,,,,,,,,,,,,,,,,,,,,,,,,,,,,,,,,,,,,,,,,,,,,,,,,,,,,,,,,,,,,,posc_negs,30,15,15,-15,"[5, 2, 1, 0.5]",lin,1,1,8,1,7,36,up,2,-1,-1,331.0462568750372,331.0531331249513,331.5470121250255,331.5470121250255,331.6207533329725,331.6207533329725,331.6207533329725,332.1788922919659,1,-30,,,,,,,,,,,,,,,brian2,001,2025-08-18_14h47.11.180,tilt_staircase,2024.2.4,None,2025-08-18 14h47.22.881091 -0400,
,,,1,0,1,,,,,,,,,,,,,,,,,,1,0,1,0,332.18720462499186,,,,,,,,,,,,,,,,,,,,,,,,,,,,,,,,,,,,,,,,,,,,,,,,,,,,,,,,,,,,,,,,,,negc_poss,30,-15,15,-15,"[5, 2, 1, 0.5]",lin,1,1,8,2,7,37,down,2,1,1,332.18001091701444,332.18720462499186,332.6790688330075,332.6790688330075,332.75443529197946,332.75443529197946,332.75443529197946,334.97777670796495,1,30,,,,,,,,,,,,,,,brian2,001,2025-08-18_14h47.11.180,tilt_staircase,2024.2.4,None,2025-08-18 14h47.22.881091 -0400,
,,,1,0,1,,,,,,,,,,,,,,,,,,1,0,1,0,334.9862715420313,,,,,,,,,,,,,,,,,,,,,,,,,,,,,,,,,,,,,,,,,,,,,,,,,,,,,,,,,,,,,,,,,,posc_poss,30,15,15,-15,"[5, 2, 1, 0.5]",lin,1,1,8,3,7,38,down,1,0,0,334.97877404198516,334.9862715420313,335.4794494579546,335.4794494579546,335.5543569170404,335.5543569170404,335.5543569170404,335.9784964999417,0,30,,,,,,,,,,,,,,,brian2,001,2025-08-18_14h47.11.180,tilt_staircase,2024.2.4,None,2025-08-18 14h47.22.881091 -0400,
,,,1,0,1,,,,,,,,,,,,,,,,,,1,0,1,0,335.986763666966,,,,,,,,,,,,,,,,,,,,,,,,,,,,,,,,,,,,,,,,,,,,,,,,,,,,,,,,,,,,,,,,,,posc_noss,30,15,15,-15,"[5, 2, 1, 0.5]",lin,1,1,8,5,7,39,up,2,-1,-1,335.979586667032,335.986763666966,336.47975516703445,336.47975516703445,336.55422695796005,336.55422695796005,336.55422695796005,336.99498279194813,0,,,,,,,,,,,,,,,,brian2,001,2025-08-18_14h47.11.180,tilt_staircase,2024.2.4,None,2025-08-18 14h47.22.881091 -0400,
,,,1,0,1,,,,,,,,,,,,,,,,,,1,0,1,0,337.0029430419672,,,,,,,,,,,,,,,,,,,,,,,,,,,,,,,,,,,,,,,,,,,,,,,,,,,,,,,,,,,,,,,,,,negc_noss,30,-15,15,-15,"[5, 2, 1, 0.5]",lin,1,1,8,4,7,40,down,2,1,1,336.9959987079492,337.0029430419672,337.4959864169359,337.4959864169359,337.570690750028,337.570690750028,337.570690750028,338.0123166249832,1,,,,,,,,,,,,,,,,brian2,001,2025-08-18_14h47.11.180,tilt_staircase,2024.2.4,None,2025-08-18 14h47.22.881091 -0400,
,,,1,0,1,,,,,,,,,,,,,,,,,,1,0,1,0,338.0209339580033,,,,,,,,,,,,,,,,,,,,,,,,,,,,,,,,,,,,,,,,,,,,,,,,,,,,,,,,,,,,,,,,,,negc_negs,30,-15,15,-15,"[5, 2, 1, 0.5]",lin,1,1,8,0,7,41,up,1,-3,-3,338.01365245797206,338.0209339580033,338.51248845795635,338.51248845795635,338.58735437493306,338.58735437493306,338.58735437493306,340.42843075003475,1,-30,,,,,,,,,,,,,,,brian2,001,2025-08-18_14h47.11.180,tilt_staircase,2024.2.4,None,2025-08-18 14h47.22.881091 -0400,
,,,1,0,1,,,,,,,,,,,,,,,,,,1,0,1,0,340.4368033329956,,,,,,,,,,,,,,,,,,,,,,,,,,,,,,,,,,,,,,,,,,,,,,,,,,,,,,,,,,,,,,,,,,negc_noss,30,-15,15,-15,"[5, 2, 1, 0.5]",lin,1,1,8,4,8,42,down,2,-1,-1,340.4295915829716,340.4368033329956,340.9289911669912,340.9289911669912,341.00408479198813,341.00408479198813,341.00408479198813,341.7062087079976,0,,,,,,,,,,,,,,,,brian2,001,2025-08-18_14h47.11.180,tilt_staircase,2024.2.4,None,2025-08-18 14h47.22.881091 -0400,
,,,1,0,1,,,,,,,,,,,,,,,,,,1,0,1,0,341.7143984999275,,,,,,,,,,,,,,,,,,,,,,,,,,,,,,,,,,,,,,,,,,,,,,,,,,,,,,,,,,,,,,,,,,posc_poss,30,15,15,-15,"[5, 2, 1, 0.5]",lin,1,1,8,3,8,43,up,0.5,0.5,0.5,341.7074762079865,341.7143984999275,342.2029770419467,342.2029770419467,342.28187691699713,342.28187691699713,342.28187691699713,342.7784570000367,0,30,,,,,,,,,,,,,,,brian2,001,2025-08-18_14h47.11.180,tilt_staircase,2024.2.4,None,2025-08-18 14h47.22.881091 -0400,
,,,1,0,1,,,,,,,,,,,,,,,,,,1,0,1,0,342.7867087080376,,,,,,,,,,,,,,,,,,,,,,,,,,,,,,,,,,,,,,,,,,,,,,,,,,,,,,,,,,,,,,,,,,negc_poss,30,-15,15,-15,"[5, 2, 1, 0.5]",lin,1,1,8,2,8,44,down,2,-1,-1,342.7794897080166,342.7867087080376,343.27980150002986,343.27980150002986,343.3543766250368,343.3543766250368,343.3543766250368,343.75614395795856,0,30,,,,,,,,,,,,,,,brian2,001,2025-08-18_14h47.11.180,tilt_staircase,2024.2.4,None,2025-08-18 14h47.22.881091 -0400,
,,,1,0,1,,,,,,,,,,,,,,,,,,1,0,1,0,343.7646638749866,,,,,,,,,,,,,,,,,,,,,,,,,,,,,,,,,,,,,,,,,,,,,,,,,,,,,,,,,,,,,,,,,,posc_noss,30,15,15,-15,"[5, 2, 1, 0.5]",lin,1,1,8,5,8,45,up,2,1,1,343.7576700419886,343.7646638749866,344.2541155000217,344.2541155000217,344.32707841694355,344.32707841694355,344.32707841694355,344.7451754169306,1,,,,,,,,,,,,,,,,brian2,001,2025-08-18_14h47.11.180,tilt_staircase,2024.2.4,None,2025-08-18 14h47.22.881091 -0400,
,,,1,0,1,,,,,,,,,,,,,,,,,,1,0,1,0,344.75304754194804,,,,,,,,,,,,,,,,,,,,,,,,,,,,,,,,,,,,,,,,,,,,,,,,,,,,,,,,,,,,,,,,,,posc_negs,30,15,15,-15,"[5, 2, 1, 0.5]",lin,1,1,8,1,8,46,down,1,-2,-2,344.74624791694805,344.75304754194804,345.24630666698795,345.24630666698795,345.32080820796546,345.32080820796546,345.32080820796546,345.87300949997734,1,-30,,,,,,,,,,,,,,,brian2,001,2025-08-18_14h47.11.180,tilt_staircase,2024.2.4,None,2025-08-18 14h47.22.881091 -0400,
,,,1,0,1,,,,,,,,,,,,,,,,,,1,0,1,0,345.8814848329639,,,,,,,,,,,,,,,,,,,,,,,,,,,,,,,,,,,,,,,,,,,,,,,,,,,,,,,,,,,,,,,,,,negc_negs,30,-15,15,-15,"[5, 2, 1, 0.5]",lin,1,1,8,0,8,47,down,0.5,-3.5,-3.5,345.87421587493736,345.8814848329639,346.3697138329735,346.3697138329735,346.444064832991,346.444064832991,346.444064832991,347.03945587493945,0,-30,,,,,,,,,,,,,,,brian2,001,2025-08-18_14h47.11.180,tilt_staircase,2024.2.4,None,2025-08-18 14h47.22.881091 -0400,
,,,1,0,1,,,,,,,,,,,,,,,,,,1,0,1,0,347.0470099169761,,,,,,,,,,,,,,,,,,,,,,,,,,,,,,,,,,,,,,,,,,,,,,,,,,,,,,,,,,,,,,,,,,posc_noss,30,15,15,-15,"[5, 2, 1, 0.5]",lin,1,1,8,5,9,48,down,1,0,0,347.04051374993287,347.0470099169761,347.53684008296113,347.53684008296113,347.60980658303015,347.60980658303015,347.60980658303015,349.8205718329409,1,,,,,,,,,,,,,,,,brian2,001,2025-08-18_14h47.11.180,tilt_staircase,2024.2.4,None,2025-08-18 14h47.22.881091 -0400,
