center,surround,correct,thisN,thisTrialN,thisRepN,key_resp_3.keys,key_resp_3.corr,key_resp_3.rt,key_resp_3.duration,opacity,key_resp_4.keys,key_resp_4.corr,key_resp_4.rt,key_resp_4.duration,practice_no_time.thisRepN,practice_no_time.thisTrialN,practice_no_time.thisN,practice_no_time.thisIndex,practice_timed.thisRepN,practice_timed.thisTrialN,practice_timed.thisN,practice_timed.thisIndex,blocks.thisRepN,blocks.thisTrialN,blocks.thisN,blocks.thisIndex,thisRow.t,notes,instr.started,text_5.started,key_resp_2.started,instr.stopped,key_resp_2.keys,key_resp_2.rt,key_resp_2.duration,instr2.started,text_6.started,key_resp_6.started,instr2.stopped,key_resp_6.keys,key_resp_6.rt,key_resp_6.duration,test.started,surround_practice_3.started,center_practice_3.started,key_resp_7.started,test.stopped,key_resp_7.keys,key_resp_7.rt,key_resp_7.duration,practice_trial.started,key_resp_3.started,surround_practice.started,center_practice.started,surround_practice.stopped,center_practice.stopped,text_11.started,practice_trial.stopped,practice_no_time.key_resp_3.keys,practice_no_time.key_resp_3.corr,practice_no_time.key_resp_3.rt,practice_no_time.key_resp_3.duration,practice_feedback.started,text_7.started,practice_feedback.stopped,text_7.stopped,instr3.started,text_8.started,key_resp_5.started,instr3.stopped,key_resp_5.keys,key_resp_5.rt,key_resp_5.duration,practice_trial_timed.started,key_resp_4.started,surround_practice_2.started,center_practice_2.started,text_12.started,surround_practice_2.stopped,center_practice_2.stopped,practice_trial_timed.stopped,practice_timed.key_resp_4.keys,practice_timed.key_resp_4.corr,practice_timed.key_resp_4.rt,practice_timed.key_resp_4.duration,start_instr.started,text_13.started,key_resp_8.started,start_instr.stopped,key_resp_8.keys,key_resp_8.rt,key_resp_8.duration,trials.label,trials.nReps,trials.startVal,trials.maxVal,trials.minVal,trials.stepSizes,trials.stepType,trials.nUp,trials.nDown,trials.nReversals,trials.thisIndex,trials.thisRepN,trials.thisN,trials.direction,trials.stepSize,trials.intensity,center_angle,surround_angle,trial.started,resp.started,surround_grating.started,center_grating.started,text_3.started,surround_grating.stopped,center_grating.stopped,trial.stopped,trials.response,break_2.started,text_14.started,key_resp_9.started,break_2.stopped,blocks.key_resp_9.keys,blocks.key_resp_9.rt,blocks.key_resp_9.duration,end.started,text_4.started,key_resp.started,end.stopped,key_resp.keys,key_resp.rt,key_resp.duration,participant,session,date,expName,psychopyVersion,frameRate,expStart
,,,,,,,,,,,,,,,,,,,,,,,,,,,,,0.013823125,0.021137291,0.021137291,25.94673167,space,25.92250321,None,,,,,,,,,,,,,,,,,,,,,,,,,,,,,,,,,,,,,,,,,,,,,,,,,,,,,,,,,,,,,,,,,,,,,,,,,,,,,,,,,,,,,,,,,,,,,,,,,,,2418,1,2025-08-16_12h48.08.966,tilt_staircase,2024.2.4,None,2025-08-16 12h48.20.531530 -0700
,,,,,,,,,,,,,,,,,,,,,,,,,,,,,,,,,,,,25.9468,25.96601179,25.96601179,27.9596025,space,1.990616125,None,,,,,,,,,,,,,,,,,,,,,,,,,,,,,,,,,,,,,,,,,,,,,,,,,,,,,,,,,,,,,,,,,,,,,,,,,,,,,,,,,,,,,,,,,,,,2418,1,2025-08-16_12h48.08.966,tilt_staircase,2024.2.4,None,2025-08-16 12h48.20.531530 -0700
,,,,,,,,,,,,,,,,,,,,,,,,,,,,,,,,,,,,,,,,,,,27.96034721,27.97827804,27.97827804,27.97827804,30.02284983,space,2.031984125,None,,,,,,,,,,,,,,,,,,,,,,,,,,,,,,,,,,,,,,,,,,,,,,,,,,,,,,,,,,,,,,,,,,,,,,,,,,,,,,,,,,,,2418,1,2025-08-16_12h48.08.966,tilt_staircase,2024.2.4,None,2025-08-16 12h48.20.531530 -0700
30,0,right,0,0,0,right,1,5.45102125,None,,,,,,0,0,0,0,,,,,,,,,30.05857467,,,,,,,,,,,,,,,,,,,,,,,,30.05129425,30.05857467,30.52490558,30.52490558,31.52006479,31.52006479,31.52006479,35.51233146,right,1,5.45102125,None,35.51701408,35.66293629,37.02147717,,,,,,,,,,,,,,,,,,,,,,,,,,,,,,,,,,,,,,,,,,,,,,,,,,,,,,,,,,,,,,,,,,,,,2418,1,2025-08-16_12h48.08.966,tilt_staircase,2024.2.4,None,2025-08-16 12h48.20.531530 -0700
-30,0,left,1,1,0,left,1,2.662723834,None,,,,,,0,1,1,1,,,,,,,,,37.02702467,,,,,,,,,,,,,,,,,,,,,,,,37.02258883,37.02702467,37.51068667,37.51068667,38.51063604,38.51063604,38.51063604,39.69366533,left,1,2.662723834,None,39.69383646,39.70337696,41.18925454,41.19550142,,,,,,,,,,,,,,,,,,,,,,,,,,,,,,,,,,,,,,,,,,,,,,,,,,,,,,,,,,,,,,,,,,,,2418,1,2025-08-16_12h48.08.966,tilt_staircase,2024.2.4,None,2025-08-16 12h48.20.531530 -0700
30,60,right,2,2,0,right,1,0.97688575,None,,,,,,0,2,2,2,,,,,,,,,41.19550142,,,,,,,,,,,,,,,,,,,,,,,,41.19051775,41.19550142,41.69240212,41.69240212,,,,42.18280775,right,1,0.97688575,None,42.18290617,42.18751071,43.67176767,43.67664487,,,,,,,,,,,,,,,,,,,,,,,,,,,,,,,,,,,,,,,,,,,,,,,,,,,,,,,,,,,,,,,,,,,,2418,1,2025-08-16_12h48.08.966,tilt_staircase,2024.2.4,None,2025-08-16 12h48.20.531530 -0700
-30,-60,left,3,3,0,left,1,0.884793166,None,,,,,,0,3,3,3,,,,,,,,,43.67664487,,,,,,,,,,,,,,,,,,,,,,,,43.672632,43.67664487,44.17957837,44.17957837,,,,44.57267858,left,1,0.884793166,None,44.57277367,44.57995321,46.07226129,46.07990404,,,,,,,,,,,,,,,,,,,,,,,,,,,,,,,,,,,,,,,,,,,,,,,,,,,,,,,,,,,,,,,,,,,,2418,1,2025-08-16_12h48.08.966,tilt_staircase,2024.2.4,None,2025-08-16 12h48.20.531530 -0700
,,,,,,,,,,,,,,,,,,,,,,,,,,,,,,,,,,,,,,,,,,,,,,,,,,,,,,,,,,,,,,,,,,,46.07246475,46.07990404,46.07990404,48.86304742,space,2.780245417,None,,,,,,,,,,,,,,,,,,,,,,,,,,,,,,,,,,,,,,,,,,,,,,,,,,,,,,,,,,,,,2418,1,2025-08-16_12h48.08.966,tilt_staircase,2024.2.4,None,2025-08-16 12h48.20.531530 -0700
-30,-60,left,0,0,0,,,,,100,left,1,1.186795125,None,,,,,0,0,0,0,,,,,48.89223354,,,,,,,,,,,,,,,,,,,,,,,,,,,,,,,,,,,,50.08972846,50.09708225,51.58846838,51.5939675,,,,,,,,48.88291954,48.89223354,49.37179342,49.37179342,49.43731454,49.44129675,49.44129675,50.08958758,left,1,1.186795125,None,,,,,,,,,,,,,,,,,,,,,,,,,,,,,,,,,,,,,,,,,,,,,,,,,2418,1,2025-08-16_12h48.08.966,tilt_staircase,2024.2.4,None,2025-08-16 12h48.20.531530 -0700
-30,0,left,1,1,0,,,,,100,left,1,1.03170525,None,,,,,0,1,1,1,,,,,51.5939675,,,,,,,,,,,,,,,,,,,,,,,,,,,,,,,,,,,,52.62944317,52.63643304,54.12228258,54.12757208,,,,,,,,51.58896625,51.5939675,52.08680683,52.08680683,52.16070362,52.16070362,52.16070362,52.62933908,left,1,1.03170525,None,,,,,,,,,,,,,,,,,,,,,,,,,,,,,,,,,,,,,,,,,,,,,,,,,2418,1,2025-08-16_12h48.08.966,tilt_staircase,2024.2.4,None,2025-08-16 12h48.20.531530 -0700
30,60,right,2,2,0,,,,,100,right,1,0.82943825,None,,,,,0,2,2,2,,,,,54.12757208,,,,,,,,,,,,,,,,,,,,,,,,,,,,,,,,,,,,54.95907429,54.97110729,56.45540762,56.4609445,,,,,,,,54.122842,54.12757208,54.62748642,54.62748642,54.70442429,54.70442429,54.70442429,54.95898712,right,1,0.82943825,None,,,,,,,,,,,,,,,,,,,,,,,,,,,,,,,,,,,,,,,,,,,,,,,,,2418,1,2025-08-16_12h48.08.966,tilt_staircase,2024.2.4,None,2025-08-16 12h48.20.531530 -0700
30,0,right,3,3,0,,,,,100,right,1,0.890225459,None,,,,,0,3,3,3,,,,,56.4609445,,,,,,,,,,,,,,,,,,,,,,,,,,,,,,,,,,,,57.35641029,57.3635195,58.85518554,58.8617715,,,,,,,,56.45606808,56.4609445,56.95446763,56.95446763,57.02757283,57.02757283,57.02757283,57.356303,right,1,0.890225459,None,,,,,,,,,,,,,,,,,,,,,,,,,,,,,,,,,,,,,,,,,,,,,,,,,2418,1,2025-08-16_12h48.08.966,tilt_staircase,2024.2.4,None,2025-08-16 12h48.20.531530 -0700
-30,69,left,4,4,0,,,,,0,left,1,1.155102666,None,,,,,0,4,4,4,,,,,58.8617715,,,,,,,,,,,,,,,,,,,,,,,,,,,,,,,,,,,,60.02295075,60.02995875,61.52214488,61.52720233,,,,,,,,58.85578287,58.8617715,59.3534205,59.3534205,59.42858279,59.42858279,59.42858279,60.02284037,left,1,1.155102666,None,,,,,,,,,,,,,,,,,,,,,,,,,,,,,,,,,,,,,,,,,,,,,,,,,2418,1,2025-08-16_12h48.08.966,tilt_staircase,2024.2.4,None,2025-08-16 12h48.20.531530 -0700
30,69,right,5,5,0,,,,,0,right,1,0.853865416,None,,,,,0,5,5,5,,,,,61.52720233,,,,,,,,,,,,,,,,,,,,,,,,,,,,,,,,,,,,62.39011796,62.39768667,63.8881315,63.89473671,,,,,,,,61.52265308,61.52720233,62.02103867,62.02103867,62.09385,62.09385,62.09385,62.38994354,right,1,0.853865416,None,,,,,,,,,,,,,,,,,,,,,,,,,,,,,,,,,,,,,,,,,,,,,,,,,2418,1,2025-08-16_12h48.08.966,tilt_staircase,2024.2.4,None,2025-08-16 12h48.20.531530 -0700
,,,,,,,,,,,,,,,,,,,,,,,,,,,,,,,,,,,,,,,,,,,,,,,,,,,,,,,,,,,,,,,,,,,,,,,,,,,,,,,,,,,,,,63.88829242,63.89473671,63.89473671,65.31221479,space,1.41137775,None,,,,,,,,,,,,,,,,,,,,,,,,,,,,,,,,,,,,,,,,,,2418,1,2025-08-16_12h48.08.966,tilt_staircase,2024.2.4,None,2025-08-16 12h48.20.531530 -0700
,,,0,0,0,,,,,,,,,,,,,,,,,,0,0,0,0,65.45060317,,,,,,,,,,,,,,,,,,,,,,,,,,,,,,,,,,,,,,,,,,,,,,,,,,,,,,,,,,,,,,,,,,posc_poss,30,15,15,-15,"[5, 2, 1, 0.5]",lin,1,1,8,3,1,0,start,5,15,15,30,65.44479962,65.45060317,65.81476671,65.81476671,65.88758983,65.89362633,65.89362633,66.47800846,1,,,,,,,,,,,,,,,2418,1,2025-08-16_12h48.08.966,tilt_staircase,2024.2.4,None,2025-08-16 12h48.20.531530 -0700
,,,0,0,0,,,,,,,,,,,,,,,,,,0,0,0,0,66.48660658,,,,,,,,,,,,,,,,,,,,,,,,,,,,,,,,,,,,,,,,,,,,,,,,,,,,,,,,,,,,,,,,,,negc_noss,30,-15,15,-15,"[5, 2, 1, 0.5]",lin,1,1,8,4,1,1,start,5,-15,-15,,66.47912583,66.48660658,66.97948158,66.97948158,67.05497783,67.05497783,67.05497783,67.6394505,0,,,,,,,,,,,,,,,2418,1,2025-08-16_12h48.08.966,tilt_staircase,2024.2.4,None,2025-08-16 12h48.20.531530 -0700
,,,0,0,0,,,,,,,,,,,,,,,,,,0,0,0,0,67.64759967,,,,,,,,,,,,,,,,,,,,,,,,,,,,,,,,,,,,,,,,,,,,,,,,,,,,,,,,,,,,,,,,,,posc_negs,30,15,15,-15,"[5, 2, 1, 0.5]",lin,1,1,8,1,1,2,start,5,15,15,-30,67.6405215,67.64759967,68.13694154,68.13694154,68.21082029,68.21082029,68.21082029,68.81129638,1,,,,,,,,,,,,,,,2418,1,2025-08-16_12h48.08.966,tilt_staircase,2024.2.4,None,2025-08-16 12h48.20.531530 -0700
,,,0,0,0,,,,,,,,,,,,,,,,,,0,0,0,0,68.82017867,,,,,,,,,,,,,,,,,,,,,,,,,,,,,,,,,,,,,,,,,,,,,,,,,,,,,,,,,,,,,,,,,,negc_poss,30,-15,15,-15,"[5, 2, 1, 0.5]",lin,1,1,8,2,1,3,start,5,-15,-15,30,68.81253079,68.82017867,69.30333796,69.30333796,69.38822129,69.37706908,69.37706908,69.81210125,0,,,,,,,,,,,,,,,2418,1,2025-08-16_12h48.08.966,tilt_staircase,2024.2.4,None,2025-08-16 12h48.20.531530 -0700
,,,0,0,0,,,,,,,,,,,,,,,,,,0,0,0,0,69.82051146,,,,,,,,,,,,,,,,,,,,,,,,,,,,,,,,,,,,,,,,,,,,,,,,,,,,,,,,,,,,,,,,,,posc_noss,30,15,15,-15,"[5, 2, 1, 0.5]",lin,1,1,8,5,1,4,start,5,15,15,,69.81335792,69.82051146,70.31319567,70.31319567,70.38820529,70.38820529,70.38820529,70.74010729,1,,,,,,,,,,,,,,,2418,1,2025-08-16_12h48.08.966,tilt_staircase,2024.2.4,None,2025-08-16 12h48.20.531530 -0700
,,,0,0,0,,,,,,,,,,,,,,,,,,0,0,0,0,70.74870058,,,,,,,,,,,,,,,,,,,,,,,,,,,,,,,,,,,,,,,,,,,,,,,,,,,,,,,,,,,,,,,,,,negc_negs,30,-15,15,-15,"[5, 2, 1, 0.5]",lin,1,1,8,0,1,5,start,5,-15,-15,-30,70.74163575,70.74870058,71.23665242,71.23665242,71.31082054,71.31082054,71.31082054,71.57253396,0,,,,,,,,,,,,,,,2418,1,2025-08-16_12h48.08.966,tilt_staircase,2024.2.4,None,2025-08-16 12h48.20.531530 -0700
,,,0,0,0,,,,,,,,,,,,,,,,,,0,0,0,0,71.579803,,,,,,,,,,,,,,,,,,,,,,,,,,,,,,,,,,,,,,,,,,,,,,,,,,,,,,,,,,,,,,,,,,posc_noss,30,15,15,-15,"[5, 2, 1, 0.5]",lin,1,1,8,5,2,6,down,5,10,10,,71.57355692,71.579803,72.07139154,72.07139154,72.14425292,72.14425292,72.14425292,72.46220062,1,,,,,,,,,,,,,,,2418,1,2025-08-16_12h48.08.966,tilt_staircase,2024.2.4,None,2025-08-16 12h48.20.531530 -0700
,,,0,0,0,,,,,,,,,,,,,,,,,,0,0,0,0,72.47042042,,,,,,,,,,,,,,,,,,,,,,,,,,,,,,,,,,,,,,,,,,,,,,,,,,,,,,,,,,,,,,,,,,negc_noss,30,-15,15,-15,"[5, 2, 1, 0.5]",lin,1,1,8,4,2,7,up,5,-10,-10,,72.46326962,72.47042042,72.96135708,72.96135708,73.03807163,73.03807163,73.03807163,73.30680875,0,,,,,,,,,,,,,,,2418,1,2025-08-16_12h48.08.966,tilt_staircase,2024.2.4,None,2025-08-16 12h48.20.531530 -0700
,,,0,0,0,,,,,,,,,,,,,,,,,,0,0,0,0,73.315365,,,,,,,,,,,,,,,,,,,,,,,,,,,,,,,,,,,,,,,,,,,,,,,,,,,,,,,,,,,,,,,,,,posc_poss,30,15,15,-15,"[5, 2, 1, 0.5]",lin,1,1,8,3,2,8,down,5,10,10,30,73.30848333,73.315365,73.80431158,73.80431158,73.87452025,73.87452025,73.87452025,74.19052887,1,,,,,,,,,,,,,,,2418,1,2025-08-16_12h48.08.966,tilt_staircase,2024.2.4,None,2025-08-16 12h48.20.531530 -0700
,,,0,0,0,,,,,,,,,,,,,,,,,,0,0,0,0,74.19902533,,,,,,,,,,,,,,,,,,,,,,,,,,,,,,,,,,,,,,,,,,,,,,,,,,,,,,,,,,,,,,,,,,negc_negs,30,-15,15,-15,"[5, 2, 1, 0.5]",lin,1,1,8,0,2,9,up,5,-10,-10,-30,74.19229787,74.19902533,74.6880245,74.6880245,74.75957454,74.75957454,74.75957454,75.00597121,0,,,,,,,,,,,,,,,2418,1,2025-08-16_12h48.08.966,tilt_staircase,2024.2.4,None,2025-08-16 12h48.20.531530 -0700
,,,0,0,0,,,,,,,,,,,,,,,,,,0,0,0,0,75.01382521,,,,,,,,,,,,,,,,,,,,,,,,,,,,,,,,,,,,,,,,,,,,,,,,,,,,,,,,,,,,,,,,,,posc_negs,30,15,15,-15,"[5, 2, 1, 0.5]",lin,1,1,8,1,2,10,down,5,10,10,-30,75.00698692,75.01382521,75.50435417,75.50435417,75.57724071,75.57724071,75.57724071,75.87244346,1,,,,,,,,,,,,,,,2418,1,2025-08-16_12h48.08.966,tilt_staircase,2024.2.4,None,2025-08-16 12h48.20.531530 -0700
,,,0,0,0,,,,,,,,,,,,,,,,,,0,0,0,0,75.87999842,,,,,,,,,,,,,,,,,,,,,,,,,,,,,,,,,,,,,,,,,,,,,,,,,,,,,,,,,,,,,,,,,,negc_poss,30,-15,15,-15,"[5, 2, 1, 0.5]",lin,1,1,8,2,2,11,up,5,-10,-10,30,75.87338925,75.87999842,76.36345571,76.36345571,76.44442892,76.438149,76.438149,76.72873108,0,,,,,,,,,,,,,,,2418,1,2025-08-16_12h48.08.966,tilt_staircase,2024.2.4,None,2025-08-16 12h48.20.531530 -0700
,,,0,0,0,,,,,,,,,,,,,,,,,,0,0,0,0,76.73658071,,,,,,,,,,,,,,,,,,,,,,,,,,,,,,,,,,,,,,,,,,,,,,,,,,,,,,,,,,,,,,,,,,posc_negs,30,15,15,-15,"[5, 2, 1, 0.5]",lin,1,1,8,1,3,12,down,5,5,5,-30,76.72972458,76.73658071,77.22943579,77.22943579,77.30376796,77.30376796,77.30376796,78.12339667,1,,,,,,,,,,,,,,,2418,1,2025-08-16_12h48.08.966,tilt_staircase,2024.2.4,None,2025-08-16 12h48.20.531530 -0700
,,,0,0,0,,,,,,,,,,,,,,,,,,0,0,0,0,78.132227,,,,,,,,,,,,,,,,,,,,,,,,,,,,,,,,,,,,,,,,,,,,,,,,,,,,,,,,,,,,,,,,,,negc_poss,30,-15,15,-15,"[5, 2, 1, 0.5]",lin,1,1,8,2,3,13,up,5,-5,-5,30,78.12520812,78.132227,78.62054725,78.62054725,78.69388821,78.69388821,78.69388821,79.02226667,0,,,,,,,,,,,,,,,2418,1,2025-08-16_12h48.08.966,tilt_staircase,2024.2.4,None,2025-08-16 12h48.20.531530 -0700
,,,0,0,0,,,,,,,,,,,,,,,,,,0,0,0,0,79.02942104,,,,,,,,,,,,,,,,,,,,,,,,,,,,,,,,,,,,,,,,,,,,,,,,,,,,,,,,,,,,,,,,,,posc_poss,30,15,15,-15,"[5, 2, 1, 0.5]",lin,1,1,8,3,3,14,down,5,5,5,30,79.02308525,79.02942104,79.51991217,79.51991217,79.59401567,79.59401567,79.59401567,79.95591154,1,,,,,,,,,,,,,,,2418,1,2025-08-16_12h48.08.966,tilt_staircase,2024.2.4,None,2025-08-16 12h48.20.531530 -0700
,,,0,0,0,,,,,,,,,,,,,,,,,,0,0,0,0,79.96357958,,,,,,,,,,,,,,,,,,,,,,,,,,,,,,,,,,,,,,,,,,,,,,,,,,,,,,,,,,,,,,,,,,posc_noss,30,15,15,-15,"[5, 2, 1, 0.5]",lin,1,1,8,5,3,15,down,5,5,5,,79.95686775,79.96357958,80.45344321,80.45344321,80.52491646,80.52491646,80.52491646,80.77254229,0,,,,,,,,,,,,,,,2418,1,2025-08-16_12h48.08.966,tilt_staircase,2024.2.4,None,2025-08-16 12h48.20.531530 -0700
,,,0,0,0,,,,,,,,,,,,,,,,,,0,0,0,0,80.77820038,,,,,,,,,,,,,,,,,,,,,,,,,,,,,,,,,,,,,,,,,,,,,,,,,,,,,,,,,,,,,,,,,,negc_noss,30,-15,15,-15,"[5, 2, 1, 0.5]",lin,1,1,8,4,3,16,up,5,-5,-5,,80.773063,80.77820038,81.27026246,81.27026246,81.34230521,81.34230521,81.34230521,81.75985567,0,,,,,,,,,,,,,,,2418,1,2025-08-16_12h48.08.966,tilt_staircase,2024.2.4,None,2025-08-16 12h48.20.531530 -0700
,,,0,0,0,,,,,,,,,,,,,,,,,,0,0,0,0,81.77017404,,,,,,,,,,,,,,,,,,,,,,,,,,,,,,,,,,,,,,,,,,,,,,,,,,,,,,,,,,,,,,,,,,negc_negs,30,-15,15,-15,"[5, 2, 1, 0.5]",lin,1,1,8,0,3,17,up,5,-5,-5,-30,81.76034737,81.77017404,82.25359392,82.25359392,82.33777196,82.32642079,82.32642079,83.08868154,0,,,,,,,,,,,,,,,2418,1,2025-08-16_12h48.08.966,tilt_staircase,2024.2.4,None,2025-08-16 12h48.20.531530 -0700
,,,0,0,0,,,,,,,,,,,,,,,,,,0,0,0,0,83.09660383,,,,,,,,,,,,,,,,,,,,,,,,,,,,,,,,,,,,,,,,,,,,,,,,,,,,,,,,,,,,,,,,,,posc_noss,30,15,15,-15,"[5, 2, 1, 0.5]",lin,1,1,8,5,4,18,up,2,7,7,,83.089722,83.09660383,83.5786955,83.5786955,83.65886363,83.65458,83.65458,83.97239187,1,,,,,,,,,,,,,,,2418,1,2025-08-16_12h48.08.966,tilt_staircase,2024.2.4,None,2025-08-16 12h48.20.531530 -0700
,,,0,0,0,,,,,,,,,,,,,,,,,,0,0,0,0,83.97949167,,,,,,,,,,,,,,,,,,,,,,,,,,,,,,,,,,,,,,,,,,,,,,,,,,,,,,,,,,,,,,,,,,negc_poss,30,-15,15,-15,"[5, 2, 1, 0.5]",lin,1,1,8,2,4,19,up,5,0,0,30,83.97340596,83.97949167,84.47095783,84.47095783,84.54431754,84.54431754,84.54431754,84.93998929,0,,,,,,,,,,,,,,,2418,1,2025-08-16_12h48.08.966,tilt_staircase,2024.2.4,None,2025-08-16 12h48.20.531530 -0700
,,,0,0,0,,,,,,,,,,,,,,,,,,0,0,0,0,84.94841304,,,,,,,,,,,,,,,,,,,,,,,,,,,,,,,,,,,,,,,,,,,,,,,,,,,,,,,,,,,,,,,,,,negc_negs,30,-15,15,-15,"[5, 2, 1, 0.5]",lin,1,1,8,0,4,20,up,5,0,0,-30,84.94150846,84.94841304,85.43694354,85.43694354,85.51089508,85.51089508,85.51089508,85.85582088,1,,,,,,,,,,,,,,,2418,1,2025-08-16_12h48.08.966,tilt_staircase,2024.2.4,None,2025-08-16 12h48.20.531530 -0700
,,,0,0,0,,,,,,,,,,,,,,,,,,0,0,0,0,85.8624715,,,,,,,,,,,,,,,,,,,,,,,,,,,,,,,,,,,,,,,,,,,,,,,,,,,,,,,,,,,,,,,,,,negc_noss,30,-15,15,-15,"[5, 2, 1, 0.5]",lin,1,1,8,4,4,21,up,5,0,0,,85.85679321,85.8624715,86.35330729,86.35330729,86.42792212,86.42792212,86.42792212,87.39784375,1,,,,,,,,,,,,,,,2418,1,2025-08-16_12h48.08.966,tilt_staircase,2024.2.4,None,2025-08-16 12h48.20.531530 -0700
,,,0,0,0,,,,,,,,,,,,,,,,,,0,0,0,0,87.40329008,,,,,,,,,,,,,,,,,,,,,,,,,,,,,,,,,,,,,,,,,,,,,,,,,,,,,,,,,,,,,,,,,,posc_poss,30,15,15,-15,"[5, 2, 1, 0.5]",lin,1,1,8,3,4,22,down,5,0,0,30,87.39886783,87.40329008,87.89472558,87.89472558,87.97683413,87.97095638,87.97095638,88.47938012,0,,,,,,,,,,,,,,,2418,1,2025-08-16_12h48.08.966,tilt_staircase,2024.2.4,None,2025-08-16 12h48.20.531530 -0700
,,,0,0,0,,,,,,,,,,,,,,,,,,0,0,0,0,88.48687196,,,,,,,,,,,,,,,,,,,,,,,,,,,,,,,,,,,,,,,,,,,,,,,,,,,,,,,,,,,,,,,,,,posc_negs,30,15,15,-15,"[5, 2, 1, 0.5]",lin,1,1,8,1,4,23,down,5,0,0,-30,88.48038525,88.48687196,88.97835917,88.97835917,89.05484667,89.05484667,89.05484667,89.41457658,1,,,,,,,,,,,,,,,2418,1,2025-08-16_12h48.08.966,tilt_staircase,2024.2.4,None,2025-08-16 12h48.20.531530 -0700
,,,0,0,0,,,,,,,,,,,,,,,,,,0,0,0,0,89.42010938,,,,,,,,,,,,,,,,,,,,,,,,,,,,,,,,,,,,,,,,,,,,,,,,,,,,,,,,,,,,,,,,,,negc_negs,30,-15,15,-15,"[5, 2, 1, 0.5]",lin,1,1,8,0,5,24,down,2,-2,-2,-30,89.41558529,89.42010938,89.91276525,89.91276525,89.99381708,89.98812421,89.98812421,90.77933883,1,,,,,,,,,,,,,,,2418,1,2025-08-16_12h48.08.966,tilt_staircase,2024.2.4,None,2025-08-16 12h48.20.531530 -0700
,,,0,0,0,,,,,,,,,,,,,,,,,,0,0,0,0,90.78753704,,,,,,,,,,,,,,,,,,,,,,,,,,,,,,,,,,,,,,,,,,,,,,,,,,,,,,,,,,,,,,,,,,posc_negs,30,15,15,-15,"[5, 2, 1, 0.5]",lin,1,1,8,1,5,25,down,5,-5,-5,-30,90.78056933,90.78753704,91.27922767,91.27922767,91.35439246,91.35439246,91.35439246,91.86213271,0,,,,,,,,,,,,,,,2418,1,2025-08-16_12h48.08.966,tilt_staircase,2024.2.4,None,2025-08-16 12h48.20.531530 -0700
,,,0,0,0,,,,,,,,,,,,,,,,,,0,0,0,0,91.86998333,,,,,,,,,,,,,,,,,,,,,,,,,,,,,,,,,,,,,,,,,,,,,,,,,,,,,,,,,,,,,,,,,,negc_poss,30,-15,15,-15,"[5, 2, 1, 0.5]",lin,1,1,8,2,5,26,up,5,5,5,30,91.86312962,91.86998333,92.36394417,92.36394417,92.43808346,92.43808346,92.43808346,92.87251179,1,,,,,,,,,,,,,,,2418,1,2025-08-16_12h48.08.966,tilt_staircase,2024.2.4,None,2025-08-16 12h48.20.531530 -0700
,,,0,0,0,,,,,,,,,,,,,,,,,,0,0,0,0,92.88010425,,,,,,,,,,,,,,,,,,,,,,,,,,,,,,,,,,,,,,,,,,,,,,,,,,,,,,,,,,,,,,,,,,negc_noss,30,-15,15,-15,"[5, 2, 1, 0.5]",lin,1,1,8,4,5,27,down,2,-2,-2,,92.87348279,92.88010425,93.37057042,93.37057042,93.44414854,93.44414854,93.44414854,93.88903504,0,,,,,,,,,,,,,,,2418,1,2025-08-16_12h48.08.966,tilt_staircase,2024.2.4,None,2025-08-16 12h48.20.531530 -0700
,,,0,0,0,,,,,,,,,,,,,,,,,,0,0,0,0,93.89552171,,,,,,,,,,,,,,,,,,,,,,,,,,,,,,,,,,,,,,,,,,,,,,,,,,,,,,,,,,,,,,,,,,posc_poss,30,15,15,-15,"[5, 2, 1, 0.5]",lin,1,1,8,3,5,28,up,2,2,2,30,93.89007142,93.89552171,94.38717408,94.38717408,94.460898,94.460898,94.460898,97.47245204,0,,,,,,,,,,,,,,,2418,1,2025-08-16_12h48.08.966,tilt_staircase,2024.2.4,None,2025-08-16 12h48.20.531530 -0700
,,,0,0,0,,,,,,,,,,,,,,,,,,0,0,0,0,97.479792,,,,,,,,,,,,,,,,,,,,,,,,,,,,,,,,,,,,,,,,,,,,,,,,,,,,,,,,,,,,,,,,,,posc_noss,30,15,15,-15,"[5, 2, 1, 0.5]",lin,1,1,8,5,5,29,down,1,6,6,,97.47349404,97.479792,97.97021408,97.97021408,98.041355,98.041355,98.041355,98.40665675,1,,,,,,,,,,,,,,,2418,1,2025-08-16_12h48.08.966,tilt_staircase,2024.2.4,None,2025-08-16 12h48.20.531530 -0700
,,,0,0,0,,,,,,,,,,,,,,,,,,0,0,0,0,98.41512879,,,,,,,,,,,,,,,,,,,,,,,,,,,,,,,,,,,,,,,,,,,,,,,,,,,,,,,,,,,,,,,,,,negc_noss,30,-15,15,-15,"[5, 2, 1, 0.5]",lin,1,1,8,4,6,30,up,1,-1,-1,,98.40786763,98.41512879,98.90464892,98.90464892,98.97675283,98.97675283,98.97675283,99.39004904,0,,,,,,,,,,,,,,,2418,1,2025-08-16_12h48.08.966,tilt_staircase,2024.2.4,None,2025-08-16 12h48.20.531530 -0700
,,,0,0,0,,,,,,,,,,,,,,,,,,0,0,0,0,99.39842204,,,,,,,,,,,,,,,,,,,,,,,,,,,,,,,,,,,,,,,,,,,,,,,,,,,,,,,,,,,,,,,,,,posc_poss,30,15,15,-15,"[5, 2, 1, 0.5]",lin,1,1,8,3,6,31,up,2,4,4,30,99.39168325,99.39842204,99.88762071,99.88762071,99.95836871,99.95836871,99.95836871,100.3652506,1,,,,,,,,,,,,,,,2418,1,2025-08-16_12h48.08.966,tilt_staircase,2024.2.4,None,2025-08-16 12h48.20.531530 -0700
,,,0,0,0,,,,,,,,,,,,,,,,,,0,0,0,0,100.3708113,,,,,,,,,,,,,,,,,,,,,,,,,,,,,,,,,,,,,,,,,,,,,,,,,,,,,,,,,,,,,,,,,,posc_noss,30,15,15,-15,"[5, 2, 1, 0.5]",lin,1,1,8,5,6,32,down,1,5,5,,100.3662263,100.3708113,100.8631779,100.8631779,100.9444118,100.937578,100.937578,101.2952984,1,,,,,,,,,,,,,,,2418,1,2025-08-16_12h48.08.966,tilt_staircase,2024.2.4,None,2025-08-16 12h48.20.531530 -0700
,,,0,0,0,,,,,,,,,,,,,,,,,,0,0,0,0,101.3032499,,,,,,,,,,,,,,,,,,,,,,,,,,,,,,,,,,,,,,,,,,,,,,,,,,,,,,,,,,,,,,,,,,negc_negs,30,-15,15,-15,"[5, 2, 1, 0.5]",lin,1,1,8,0,6,33,down,2,-4,-4,-30,101.2963107,101.3032499,101.7963275,101.7963275,101.8709294,101.8709294,101.8709294,102.315276,0,,,,,,,,,,,,,,,2418,1,2025-08-16_12h48.08.966,tilt_staircase,2024.2.4,None,2025-08-16 12h48.20.531530 -0700
,,,0,0,0,,,,,,,,,,,,,,,,,,0,0,0,0,102.320732,,,,,,,,,,,,,,,,,,,,,,,,,,,,,,,,,,,,,,,,,,,,,,,,,,,,,,,,,,,,,,,,,,negc_poss,30,-15,15,-15,"[5, 2, 1, 0.5]",lin,1,1,8,2,6,34,down,2,3,3,30,102.3162839,102.320732,102.8126044,102.8126044,102.8931318,102.8879275,102.8879275,103.2732396,1,,,,,,,,,,,,,,,2418,1,2025-08-16_12h48.08.966,tilt_staircase,2024.2.4,None,2025-08-16 12h48.20.531530 -0700
,,,0,0,0,,,,,,,,,,,,,,,,,,0,0,0,0,103.2811704,,,,,,,,,,,,,,,,,,,,,,,,,,,,,,,,,,,,,,,,,,,,,,,,,,,,,,,,,,,,,,,,,,posc_negs,30,15,15,-15,"[5, 2, 1, 0.5]",lin,1,1,8,1,6,35,up,2,-3,-3,-30,103.2743416,103.2811704,103.7709302,103.7709302,103.8433177,103.8433177,103.8433177,105.0064863,0,,,,,,,,,,,,,,,2418,1,2025-08-16_12h48.08.966,tilt_staircase,2024.2.4,None,2025-08-16 12h48.20.531530 -0700
,,,0,0,0,,,,,,,,,,,,,,,,,,0,0,0,0,105.0153754,,,,,,,,,,,,,,,,,,,,,,,,,,,,,,,,,,,,,,,,,,,,,,,,,,,,,,,,,,,,,,,,,,negc_noss,30,-15,15,-15,"[5, 2, 1, 0.5]",lin,1,1,8,4,7,36,up,1,0,0,,105.0083135,105.0153754,105.5043304,105.5043304,105.5765884,105.5765884,105.5765884,106.2565072,0,,,,,,,,,,,,,,,2418,1,2025-08-16_12h48.08.966,tilt_staircase,2024.2.4,None,2025-08-16 12h48.20.531530 -0700
,,,0,0,0,,,,,,,,,,,,,,,,,,0,0,0,0,106.2650945,,,,,,,,,,,,,,,,,,,,,,,,,,,,,,,,,,,,,,,,,,,,,,,,,,,,,,,,,,,,,,,,,,negc_negs,30,-15,15,-15,"[5, 2, 1, 0.5]",lin,1,1,8,0,7,37,up,1,-3,-3,-30,106.2582212,106.2650945,106.7546923,106.7546923,106.8272381,106.8272381,106.8272381,107.5125522,0,,,,,,,,,,,,,,,2418,1,2025-08-16_12h48.08.966,tilt_staircase,2024.2.4,None,2025-08-16 12h48.20.531530 -0700
,,,0,0,0,,,,,,,,,,,,,,,,,,0,0,0,0,107.5204411,,,,,,,,,,,,,,,,,,,,,,,,,,,,,,,,,,,,,,,,,,,,,,,,,,,,,,,,,,,,,,,,,,posc_negs,30,15,15,-15,"[5, 2, 1, 0.5]",lin,1,1,8,1,7,38,up,2,-1,-1,-30,107.5136318,107.5204411,108.0108638,108.0108638,108.0878906,108.0878906,108.0878906,108.5957225,1,,,,,,,,,,,,,,,2418,1,2025-08-16_12h48.08.966,tilt_staircase,2024.2.4,None,2025-08-16 12h48.20.531530 -0700
,,,0,0,0,,,,,,,,,,,,,,,,,,0,0,0,0,108.6032953,,,,,,,,,,,,,,,,,,,,,,,,,,,,,,,,,,,,,,,,,,,,,,,,,,,,,,,,,,,,,,,,,,negc_poss,30,-15,15,-15,"[5, 2, 1, 0.5]",lin,1,1,8,2,7,39,down,2,1,1,30,108.5967451,108.6032953,109.0958138,109.0958138,109.1709797,109.1709797,109.1709797,110.0559081,1,,,,,,,,,,,,,,,2418,1,2025-08-16_12h48.08.966,tilt_staircase,2024.2.4,None,2025-08-16 12h48.20.531530 -0700
,,,0,0,0,,,,,,,,,,,,,,,,,,0,0,0,0,110.0637204,,,,,,,,,,,,,,,,,,,,,,,,,,,,,,,,,,,,,,,,,,,,,,,,,,,,,,,,,,,,,,,,,,posc_noss,30,15,15,-15,"[5, 2, 1, 0.5]",lin,1,1,8,5,7,40,down,1,4,4,,110.0569187,110.0637204,110.5546227,110.5546227,110.6268755,110.6268755,110.6268755,110.9886543,1,,,,,,,,,,,,,,,2418,1,2025-08-16_12h48.08.966,tilt_staircase,2024.2.4,None,2025-08-16 12h48.20.531530 -0700
,,,0,0,0,,,,,,,,,,,,,,,,,,0,0,0,0,110.9963512,,,,,,,,,,,,,,,,,,,,,,,,,,,,,,,,,,,,,,,,,,,,,,,,,,,,,,,,,,,,,,,,,,posc_poss,30,15,15,-15,"[5, 2, 1, 0.5]",lin,1,1,8,3,7,41,down,1,3,3,30,110.9896246,110.9963512,111.48652,111.48652,111.5587075,111.5587075,111.5587075,112.0233778,1,,,,,,,,,,,,,,,2418,1,2025-08-16_12h48.08.966,tilt_staircase,2024.2.4,None,2025-08-16 12h48.20.531530 -0700
,,,0,0,0,,,,,,,,,,,,,,,,,,0,0,0,0,112.0318466,,,,,,,,,,,,,,,,,,,,,,,,,,,,,,,,,,,,,,,,,,,,,,,,,,,,,,,,,,,,,,,,,,negc_poss,30,-15,15,-15,"[5, 2, 1, 0.5]",lin,1,1,8,2,8,42,down,2,-1,-1,30,112.0251808,112.0318466,112.5204137,112.5204137,112.5940885,112.5940885,112.5940885,114.0727754,0,,,,,,,,,,,,,,,2418,1,2025-08-16_12h48.08.966,tilt_staircase,2024.2.4,None,2025-08-16 12h48.20.531530 -0700
,,,0,0,0,,,,,,,,,,,,,,,,,,0,0,0,0,114.0807024,,,,,,,,,,,,,,,,,,,,,,,,,,,,,,,,,,,,,,,,,,,,,,,,,,,,,,,,,,,,,,,,,,posc_noss,30,15,15,-15,"[5, 2, 1, 0.5]",lin,1,1,8,5,8,43,down,1,3,3,,114.0738292,114.0807024,114.5708518,114.5708518,114.6420403,114.6420403,114.6420403,114.9886435,1,,,,,,,,,,,,,,,2418,1,2025-08-16_12h48.08.966,tilt_staircase,2024.2.4,None,2025-08-16 12h48.20.531530 -0700
,,,0,0,0,,,,,,,,,,,,,,,,,,0,0,0,0,114.9960128,,,,,,,,,,,,,,,,,,,,,,,,,,,,,,,,,,,,,,,,,,,,,,,,,,,,,,,,,,,,,,,,,,posc_negs,30,15,15,-15,"[5, 2, 1, 0.5]",lin,1,1,8,1,8,44,down,1,-2,-2,-30,114.9896148,114.9960128,115.4866046,115.4866046,115.5575009,115.5575009,115.5575009,116.3229922,1,,,,,,,,,,,,,,,2418,1,2025-08-16_12h48.08.966,tilt_staircase,2024.2.4,None,2025-08-16 12h48.20.531530 -0700
,,,0,0,0,,,,,,,,,,,,,,,,,,0,0,0,0,116.3312495,,,,,,,,,,,,,,,,,,,,,,,,,,,,,,,,,,,,,,,,,,,,,,,,,,,,,,,,,,,,,,,,,,negc_noss,30,-15,15,-15,"[5, 2, 1, 0.5]",lin,1,1,8,4,8,45,up,1,1,1,,116.3243395,116.3312495,116.8198473,116.8198473,116.8932722,116.8932722,116.8932722,117.2056295,1,,,,,,,,,,,,,,,2418,1,2025-08-16_12h48.08.966,tilt_staircase,2024.2.4,None,2025-08-16 12h48.20.531530 -0700
,,,0,0,0,,,,,,,,,,,,,,,,,,0,0,0,0,117.2132913,,,,,,,,,,,,,,,,,,,,,,,,,,,,,,,,,,,,,,,,,,,,,,,,,,,,,,,,,,,,,,,,,,negc_negs,30,-15,15,-15,"[5, 2, 1, 0.5]",lin,1,1,8,0,8,46,up,1,-2,-2,-30,117.2066064,117.2132913,117.7042896,117.7042896,117.777455,117.777455,117.777455,118.2126711,1,,,,,,,,,,,,,,,2418,1,2025-08-16_12h48.08.966,tilt_staircase,2024.2.4,None,2025-08-16 12h48.20.531530 -0700
,,,0,0,0,,,,,,,,,,,,,,,,,,0,0,0,0,118.2208207,,,,,,,,,,,,,,,,,,,,,,,,,,,,,,,,,,,,,,,,,,,,,,,,,,,,,,,,,,,,,,,,,,posc_poss,30,15,15,-15,"[5, 2, 1, 0.5]",lin,1,1,8,3,8,47,down,1,2,2,30,118.2140005,118.2208207,118.7128905,118.7128905,118.7880118,118.7880118,118.7880118,119.1898862,1,,,,,,,,,,,,,,,2418,1,2025-08-16_12h48.08.966,tilt_staircase,2024.2.4,None,2025-08-16 12h48.20.531530 -0700
,,,0,0,0,,,,,,,,,,,,,,,,,,0,0,0,0,119.1980183,,,,,,,,,,,,,,,,,,,,,,,,,,,,,,,,,,,,,,,,,,,,,,,,,,,,,,,,,,,,,,,,,,posc_noss,30,15,15,-15,"[5, 2, 1, 0.5]",lin,1,1,8,5,9,48,down,1,2,2,,119.1910527,119.1980183,119.6875568,119.6875568,119.7603275,119.7603275,119.7603275,120.1226403,1,,,,,,,,,,,,,,,2418,1,2025-08-16_12h48.08.966,tilt_staircase,2024.2.4,None,2025-08-16 12h48.20.531530 -0700
,,,0,0,0,,,,,,,,,,,,,,,,,,0,0,0,0,120.1307314,,,,,,,,,,,,,,,,,,,,,,,,,,,,,,,,,,,,,,,,,,,,,,,,,,,,,,,,,,,,,,,,,,negc_negs,30,-15,15,-15,"[5, 2, 1, 0.5]",lin,1,1,8,0,9,49,down,0.5,-2.5,-2.5,-30,120.1238973,120.1307314,120.6208718,120.6208718,120.69194,120.69194,120.69194,121.472949,0,,,,,,,,,,,,,,,2418,1,2025-08-16_12h48.08.966,tilt_staircase,2024.2.4,None,2025-08-16 12h48.20.531530 -0700
,,,0,0,0,,,,,,,,,,,,,,,,,,0,0,0,0,121.4804106,,,,,,,,,,,,,,,,,,,,,,,,,,,,,,,,,,,,,,,,,,,,,,,,,,,,,,,,,,,,,,,,,,posc_negs,30,15,15,-15,"[5, 2, 1, 0.5]",lin,1,1,8,1,9,50,down,1,-3,-3,-30,121.4740557,121.4804106,121.9707654,121.9707654,122.0440062,122.0440062,122.0440062,122.559753,0,,,,,,,,,,,,,,,2418,1,2025-08-16_12h48.08.966,tilt_staircase,2024.2.4,None,2025-08-16 12h48.20.531530 -0700
,,,0,0,0,,,,,,,,,,,,,,,,,,0,0,0,0,122.5703598,,,,,,,,,,,,,,,,,,,,,,,,,,,,,,,,,,,,,,,,,,,,,,,,,,,,,,,,,,,,,,,,,,negc_poss,30,-15,15,-15,"[5, 2, 1, 0.5]",lin,1,1,8,2,9,51,up,1,0,0,30,122.5607471,122.5703598,123.0543653,123.0543653,123.1380421,123.1264515,123.1264515,123.544789,0,,,,,,,,,,,,,,,2418,1,2025-08-16_12h48.08.966,tilt_staircase,2024.2.4,None,2025-08-16 12h48.20.531530 -0700
,,,0,0,0,,,,,,,,,,,,,,,,,,0,0,0,0,123.5530685,,,,,,,,,,,,,,,,,,,,,,,,,,,,,,,,,,,,,,,,,,,,,,,,,,,,,,,,,,,,,,,,,,posc_poss,30,15,15,-15,"[5, 2, 1, 0.5]",lin,1,1,8,3,9,52,down,1,1,1,30,123.545598,123.5530685,124.046187,124.046187,124.121237,124.121237,124.121237,124.588806,0,,,,,,,,,,,,,,,2418,1,2025-08-16_12h48.08.966,tilt_staircase,2024.2.4,None,2025-08-16 12h48.20.531530 -0700
,,,0,0,0,,,,,,,,,,,,,,,,,,0,0,0,0,124.5958988,,,,,,,,,,,,,,,,,,,,,,,,,,,,,,,,,,,,,,,,,,,,,,,,,,,,,,,,,,,,,,,,,,negc_noss,30,-15,15,-15,"[5, 2, 1, 0.5]",lin,1,1,8,4,9,53,down,0.5,0.5,0.5,,124.589786,124.5958988,125.0788574,125.0788574,125.1606632,125.1546503,125.1546503,125.5764228,1,,,,,,,,,,,,,,,2418,1,2025-08-16_12h48.08.966,tilt_staircase,2024.2.4,None,2025-08-16 12h48.20.531530 -0700
,,,0,0,0,,,,,,,,,,,,,,,,,,0,0,0,0,125.587533,,,,,,,,,,,,,,,,,,,,,,,,,,,,,,,,,,,,,,,,,,,,,,,,,,,,,,,,,,,,,,,,,,posc_negs,30,15,15,-15,"[5, 2, 1, 0.5]",lin,1,1,8,1,10,54,up,0.5,-2.5,-2.5,-30,125.5773782,125.587533,126.0772378,126.0772378,126.1541681,126.1541681,126.1541681,126.5732769,1,,,,,,,,,,,,,,,2418,1,2025-08-16_12h48.08.966,tilt_staircase,2024.2.4,None,2025-08-16 12h48.20.531530 -0700
,,,0,0,0,,,,,,,,,,,,,,,,,,0,0,0,0,126.5812862,,,,,,,,,,,,,,,,,,,,,,,,,,,,,,,,,,,,,,,,,,,,,,,,,,,,,,,,,,,,,,,,,,negc_noss,30,-15,15,-15,"[5, 2, 1, 0.5]",lin,1,1,8,4,10,55,down,0.5,0,0,,126.5743083,126.5812862,127.0701098,127.0701098,127.1445333,127.1445333,127.1445333,127.6051419,1,,,,,,,,,,,,,,,2418,1,2025-08-16_12h48.08.966,tilt_staircase,2024.2.4,None,2025-08-16 12h48.20.531530 -0700
,,,0,0,0,,,,,,,,,,,,,,,,,,0,0,0,0,127.6125537,,,,,,,,,,,,,,,,,,,,,,,,,,,,,,,,,,,,,,,,,,,,,,,,,,,,,,,,,,,,,,,,,,posc_noss,30,15,15,-15,"[5, 2, 1, 0.5]",lin,1,1,8,5,10,56,down,1,1,1,,127.6061118,127.6125537,128.103368,128.103368,128.1741076,128.1741076,128.1741076,128.5464856,1,,,,,,,,,,,,,,,2418,1,2025-08-16_12h48.08.966,tilt_staircase,2024.2.4,None,2025-08-16 12h48.20.531530 -0700
,,,0,0,0,,,,,,,,,,,,,,,,,,0,0,0,0,128.5567231,,,,,,,,,,,,,,,,,,,,,,,,,,,,,,,,,,,,,,,,,,,,,,,,,,,,,,,,,,,,,,,,,,negc_poss,30,-15,15,-15,"[5, 2, 1, 0.5]",lin,1,1,8,2,10,57,up,1,1,1,30,128.5480796,128.5567231,129.0454436,129.0454436,129.1213957,129.1213957,129.1213957,129.9224535,1,,,,,,,,,,,,,,,2418,1,2025-08-16_12h48.08.966,tilt_staircase,2024.2.4,None,2025-08-16 12h48.20.531530 -0700
,,,0,0,0,,,,,,,,,,,,,,,,,,0,0,0,0,129.9307738,,,,,,,,,,,,,,,,,,,,,,,,,,,,,,,,,,,,,,,,,,,,,,,,,,,,,,,,,,,,,,,,,,posc_poss,30,15,15,-15,"[5, 2, 1, 0.5]",lin,1,1,8,3,10,58,up,0.5,1.5,1.5,30,129.923521,129.9307738,130.4210963,130.4210963,130.4924875,130.4924875,130.4924875,130.9223227,1,,,,,,,,,,,,,,,2418,1,2025-08-16_12h48.08.966,tilt_staircase,2024.2.4,None,2025-08-16 12h48.20.531530 -0700
,,,0,0,0,,,,,,,,,,,,,,,,,,0,0,0,0,130.9305103,,,,,,,,,,,,,,,,,,,,,,,,,,,,,,,,,,,,,,,,,,,,,,,,,,,,,,,,,,,,,,,,,,negc_negs,30,-15,15,-15,"[5, 2, 1, 0.5]",lin,1,1,8,0,10,59,up,0.5,-2,-2,-30,130.923413,130.9305103,131.4203596,131.4203596,131.4914503,131.4914503,131.4914503,131.8393841,1,,,,,,,,,,,,,,,2418,1,2025-08-16_12h48.08.966,tilt_staircase,2024.2.4,None,2025-08-16 12h48.20.531530 -0700
,,,0,0,0,,,,,,,,,,,,,,,,,,0,0,0,0,131.8471387,,,,,,,,,,,,,,,,,,,,,,,,,,,,,,,,,,,,,,,,,,,,,,,,,,,,,,,,,,,,,,,,,,posc_noss,30,15,15,-15,"[5, 2, 1, 0.5]",lin,1,1,8,5,11,60,down,1,0,0,,131.8404732,131.8471387,132.3364943,132.3364943,132.4111884,132.4111884,132.4111884,132.9091368,1,,,,,,,,,,,,,,,2418,1,2025-08-16_12h48.08.966,tilt_staircase,2024.2.4,None,2025-08-16 12h48.20.531530 -0700
,,,0,0,0,,,,,,,,,,,,,,,,,,0,0,0,0,132.920803,,,,,,,,,,,,,,,,,,,,,,,,,,,,,,,,,,,,,,,,,,,,,,,,,,,,,,,,,,,,,,,,,,posc_negs,30,15,15,-15,"[5, 2, 1, 0.5]",lin,1,1,8,1,11,61,down,0.5,-3,-3,-30,132.909964,132.920803,133.4031791,133.4031791,133.4876105,133.4769064,133.4769064,134.0090928,0,,,,,,,,,,,,,,,2418,1,2025-08-16_12h48.08.966,tilt_staircase,2024.2.4,None,2025-08-16 12h48.20.531530 -0700
,,,0,0,0,,,,,,,,,,,,,,,,,,0,0,0,0,134.021331,,,,,,,,,,,,,,,,,,,,,,,,,,,,,,,,,,,,,,,,,,,,,,,,,,,,,,,,,,,,,,,,,,negc_noss,30,-15,15,-15,"[5, 2, 1, 0.5]",lin,1,1,8,4,11,62,down,0.5,-0.5,-0.5,,134.01015,134.021331,134.5043268,134.5043268,134.587551,134.575614,134.575614,135.1732685,0,,,,,,,,,,,,,,,2418,1,2025-08-16_12h48.08.966,tilt_staircase,2024.2.4,None,2025-08-16 12h48.20.531530 -0700
,,,0,0,0,,,,,,,,,,,,,,,,,,0,0,0,0,135.1823787,,,,,,,,,,,,,,,,,,,,,,,,,,,,,,,,,,,,,,,,,,,,,,,,,,,,,,,,,,,,,,,,,,posc_poss,30,15,15,-15,"[5, 2, 1, 0.5]",lin,1,1,8,3,11,63,down,0.5,1,1,30,135.174845,135.1823787,135.671011,135.671011,135.7425573,135.7425573,135.7425573,136.5056948,1,,,,,,,,,,,,,,,2418,1,2025-08-16_12h48.08.966,tilt_staircase,2024.2.4,None,2025-08-16 12h48.20.531530 -0700
,,,0,0,0,,,,,,,,,,,,,,,,,,0,0,0,0,136.5127415,,,,,,,,,,,,,,,,,,,,,,,,,,,,,,,,,,,,,,,,,,,,,,,,,,,,,,,,,,,,,,,,,,negc_poss,30,-15,15,-15,"[5, 2, 1, 0.5]",lin,1,1,8,2,11,64,down,0.5,0.5,0.5,30,136.5066904,136.5127415,137.0043999,137.0043999,137.077131,137.077131,137.077131,137.8626929,1,,,,,,,,,,,,,,,2418,1,2025-08-16_12h48.08.966,tilt_staircase,2024.2.4,None,2025-08-16 12h48.20.531530 -0700
,,,0,0,0,,,,,,,,,,,,,,,,,,0,0,0,0,137.8706066,,,,,,,,,,,,,,,,,,,,,,,,,,,,,,,,,,,,,,,,,,,,,,,,,,,,,,,,,,,,,,,,,,negc_negs,30,-15,15,-15,"[5, 2, 1, 0.5]",lin,1,1,8,0,11,65,down,0.5,-2.5,-2.5,-30,137.8637674,137.8706066,138.3627788,138.3627788,138.437997,138.437997,138.437997,140.5963731,1,,,,,,,,,,,,,,,2418,1,2025-08-16_12h48.08.966,tilt_staircase,2024.2.4,None,2025-08-16 12h48.20.531530 -0700
,,,0,0,0,,,,,,,,,,,,,,,,,,0,0,0,0,140.6044303,,,,,,,,,,,,,,,,,,,,,,,,,,,,,,,,,,,,,,,,,,,,,,,,,,,,,,,,,,,,,,,,,,posc_noss,30,15,15,-15,"[5, 2, 1, 0.5]",lin,1,1,8,5,12,66,down,1,-1,-1,,140.5975095,140.6044303,141.0933676,141.0933676,141.1761671,141.1703773,141.1703773,141.6040437,0,,,,,,,,,,,,,,,2418,1,2025-08-16_12h48.08.966,tilt_staircase,2024.2.4,None,2025-08-16 12h48.20.531530 -0700
,,,0,0,0,,,,,,,,,,,,,,,,,,0,0,0,0,141.6088315,,,,,,,,,,,,,,,,,,,,,,,,,,,,,,,,,,,,,,,,,,,,,,,,,,,,,,,,,,,,,,,,,,posc_negs,30,15,15,-15,"[5, 2, 1, 0.5]",lin,1,1,8,1,12,67,up,0.5,-2.5,-2.5,-30,141.6046293,141.6088315,142.0957399,142.0957399,142.177092,142.1712231,142.1712231,143.2659399,0,,,,,,,,,,,,,,,2418,1,2025-08-16_12h48.08.966,tilt_staircase,2024.2.4,None,2025-08-16 12h48.20.531530 -0700
,,,0,0,0,,,,,,,,,,,,,,,,,,0,0,0,0,143.2876856,,,,,,,,,,,,,,,,,,,,,,,,,,,,,,,,,,,,,,,,,,,,,,,,,,,,,,,,,,,,,,,,,,negc_poss,30,-15,15,-15,"[5, 2, 1, 0.5]",lin,1,1,8,2,12,68,down,0.5,0,0,30,143.2669753,143.2876856,143.7624237,143.7624237,143.8425247,143.8369952,143.8369952,144.9724315,0,,,,,,,,,,,,,,,2418,1,2025-08-16_12h48.08.966,tilt_staircase,2024.2.4,None,2025-08-16 12h48.20.531530 -0700
,,,0,0,0,,,,,,,,,,,,,,,,,,0,0,0,0,144.9797019,,,,,,,,,,,,,,,,,,,,,,,,,,,,,,,,,,,,,,,,,,,,,,,,,,,,,,,,,,,,,,,,,,negc_noss,30,-15,15,-15,"[5, 2, 1, 0.5]",lin,1,1,8,4,12,69,up,0.5,0,0,,144.9734862,144.9797019,145.4702477,145.4702477,145.5443556,145.5443556,145.5443556,146.2100729,1,,,,,,,,,,,,,,,2418,1,2025-08-16_12h48.08.966,tilt_staircase,2024.2.4,None,2025-08-16 12h48.20.531530 -0700
,,,0,0,0,,,,,,,,,,,,,,,,,,0,0,0,0,146.2197582,,,,,,,,,,,,,,,,,,,,,,,,,,,,,,,,,,,,,,,,,,,,,,,,,,,,,,,,,,,,,,,,,,posc_poss,30,15,15,-15,"[5, 2, 1, 0.5]",lin,1,1,8,3,12,70,down,0.5,0.5,0.5,30,146.2111529,146.2197582,146.7122069,146.7122069,146.787652,146.787652,146.787652,147.6562507,1,,,,,,,,,,,,,,,2418,1,2025-08-16_12h48.08.966,tilt_staircase,2024.2.4,None,2025-08-16 12h48.20.531530 -0700
,,,0,0,0,,,,,,,,,,,,,,,,,,0,0,0,0,147.6641653,,,,,,,,,,,,,,,,,,,,,,,,,,,,,,,,,,,,,,,,,,,,,,,,,,,,,,,,,,,,,,,,,,negc_negs,30,-15,15,-15,"[5, 2, 1, 0.5]",lin,1,1,8,0,12,71,down,0.5,-3,-3,-30,147.6573408,147.6641653,148.154658,148.154658,148.2271402,148.2271402,148.2271402,148.7118849,1,,,,,,,,,,,,,,,2418,1,2025-08-16_12h48.08.966,tilt_staircase,2024.2.4,None,2025-08-16 12h48.20.531530 -0700
,,,0,0,0,,,,,,,,,,,,,,,,,,0,0,0,0,148.719741,,,,,,,,,,,,,,,,,,,,,,,,,,,,,,,,,,,,,,,,,,,,,,,,,,,,,,,,,,,,,,,,,,posc_poss,30,15,15,-15,"[5, 2, 1, 0.5]",lin,1,1,8,3,13,72,down,0.5,0,0,30,148.712911,148.719741,149.2127989,149.2127989,149.2876472,149.2876472,149.2876472,150.8557972,1,,,,,,,,,,,,,,,2418,1,2025-08-16_12h48.08.966,tilt_staircase,2024.2.4,None,2025-08-16 12h48.20.531530 -0700
,,,0,0,0,,,,,,,,,,,,,,,,,,0,0,0,0,150.8627643,,,,,,,,,,,,,,,,,,,,,,,,,,,,,,,,,,,,,,,,,,,,,,,,,,,,,,,,,,,,,,,,,,posc_noss,30,15,15,-15,"[5, 2, 1, 0.5]",lin,1,1,8,5,13,73,up,0.5,-0.5,-0.5,,150.8568311,150.8627643,151.3543471,151.3543471,151.4276582,151.4276582,151.4276582,152.056635,1,,,,,,,,,,,,,,,2418,1,2025-08-16_12h48.08.966,tilt_staircase,2024.2.4,None,2025-08-16 12h48.20.531530 -0700
,,,0,0,0,,,,,,,,,,,,,,,,,,0,0,0,0,152.0652786,,,,,,,,,,,,,,,,,,,,,,,,,,,,,,,,,,,,,,,,,,,,,,,,,,,,,,,,,,,,,,,,,,negc_negs,30,-15,15,-15,"[5, 2, 1, 0.5]",lin,1,1,8,0,13,74,down,0.5,-3.5,-3.5,-30,152.0584004,152.0652786,152.5531678,152.5531678,152.6272152,152.6272152,152.6272152,153.2234085,0,,,,,,,,,,,,,,,2418,1,2025-08-16_12h48.08.966,tilt_staircase,2024.2.4,None,2025-08-16 12h48.20.531530 -0700
,,,0,0,0,,,,,,,,,,,,,,,,,,0,0,0,0,153.2323711,,,,,,,,,,,,,,,,,,,,,,,,,,,,,,,,,,,,,,,,,,,,,,,,,,,,,,,,,,,,,,,,,,posc_negs,30,15,15,-15,"[5, 2, 1, 0.5]",lin,1,1,8,1,13,75,up,0.5,-2,-2,-30,153.2252908,153.2323711,153.7209235,153.7209235,153.7937523,153.7937523,153.7937523,154.1790677,1,,,,,,,,,,,,,,,2418,1,2025-08-16_12h48.08.966,tilt_staircase,2024.2.4,None,2025-08-16 12h48.20.531530 -0700
,,,0,0,0,,,,,,,,,,,,,,,,,,0,0,0,0,154.1876126,,,,,,,,,,,,,,,,,,,,,,,,,,,,,,,,,,,,,,,,,,,,,,,,,,,,,,,,,,,,,,,,,,negc_poss,30,-15,15,-15,"[5, 2, 1, 0.5]",lin,1,1,8,2,13,76,up,0.5,0.5,0.5,30,154.1804735,154.1876126,154.6781834,154.6781834,154.7542797,154.7542797,154.7542797,156.2928839,1,,,,,,,,,,,,,,,2418,1,2025-08-16_12h48.08.966,tilt_staircase,2024.2.4,None,2025-08-16 12h48.20.531530 -0700
,,,0,0,0,,,,,,,,,,,,,,,,,,0,0,0,0,156.303131,,,,,,,,,,,,,,,,,,,,,,,,,,,,,,,,,,,,,,,,,,,,,,,,,,,,,,,,,,,,,,,,,,negc_noss,30,-15,15,-15,"[5, 2, 1, 0.5]",lin,1,1,8,4,13,77,down,0.5,-0.5,-0.5,,156.2939106,156.303131,156.7875231,156.7875231,156.8709151,156.8611863,156.8611863,157.6222724,0,,,,,,,,,,,,,,,2418,1,2025-08-16_12h48.08.966,tilt_staircase,2024.2.4,None,2025-08-16 12h48.20.531530 -0700
,,,0,0,0,,,,,,,,,,,,,,,,,,0,0,0,0,157.6277604,,,,,,,,,,,,,,,,,,,,,,,,,,,,,,,,,,,,,,,,,,,,,,,,,,,,,,,,,,,,,,,,,,posc_noss,30,15,15,-15,"[5, 2, 1, 0.5]",lin,1,1,8,5,14,78,down,0.5,-1,-1,,157.6233373,157.6277604,158.1199868,158.1199868,158.1928941,158.1928941,158.1928941,158.8731416,0,,,,,,,,,,,,,,,2418,1,2025-08-16_12h48.08.966,tilt_staircase,2024.2.4,None,2025-08-16 12h48.20.531530 -0700
,,,0,0,0,,,,,,,,,,,,,,,,,,0,0,0,0,158.8818784,,,,,,,,,,,,,,,,,,,,,,,,,,,,,,,,,,,,,,,,,,,,,,,,,,,,,,,,,,,,,,,,,,posc_poss,30,15,15,-15,"[5, 2, 1, 0.5]",lin,1,1,8,3,14,79,down,0.5,-0.5,-0.5,30,158.8744343,158.8818784,159.3736011,159.3736011,159.4438228,159.4438228,159.4438228,159.9923206,0,,,,,,,,,,,,,,,2418,1,2025-08-16_12h48.08.966,tilt_staircase,2024.2.4,None,2025-08-16 12h48.20.531530 -0700
,,,0,0,0,,,,,,,,,,,,,,,,,,0,0,0,0,160.0044475,,,,,,,,,,,,,,,,,,,,,,,,,,,,,,,,,,,,,,,,,,,,,,,,,,,,,,,,,,,,,,,,,,negc_negs,30,-15,15,-15,"[5, 2, 1, 0.5]",lin,1,1,8,0,14,80,up,0.5,-3,-3,-30,159.9931483,160.0044475,160.4866314,160.4866314,160.570712,160.5577273,160.5577273,162.206134,0,,,,,,,,,,,,,,,2418,1,2025-08-16_12h48.08.966,tilt_staircase,2024.2.4,None,2025-08-16 12h48.20.531530 -0700
,,,0,0,0,,,,,,,,,,,,,,,,,,0,0,0,0,162.2143298,,,,,,,,,,,,,,,,,,,,,,,,,,,,,,,,,,,,,,,,,,,,,,,,,,,,,,,,,,,,,,,,,,posc_negs,30,15,15,-15,"[5, 2, 1, 0.5]",lin,1,1,8,1,14,81,down,0.5,-2.5,-2.5,-30,162.2078959,162.2143298,162.7042587,162.7042587,162.7769582,162.7769582,162.7769582,163.2620791,1,,,,,,,,,,,,,,,2418,1,2025-08-16_12h48.08.966,tilt_staircase,2024.2.4,None,2025-08-16 12h48.20.531530 -0700
,,,0,0,0,,,,,,,,,,,,,,,,,,0,0,0,0,163.2704256,,,,,,,,,,,,,,,,,,,,,,,,,,,,,,,,,,,,,,,,,,,,,,,,,,,,,,,,,,,,,,,,,,negc_noss,30,-15,15,-15,"[5, 2, 1, 0.5]",lin,1,1,8,4,14,82,up,0.5,0,0,,163.2631429,163.2704256,163.7619178,163.7619178,163.8375508,163.8375508,163.8375508,164.9058709,0,,,,,,,,,,,,,,,2418,1,2025-08-16_12h48.08.966,tilt_staircase,2024.2.4,None,2025-08-16 12h48.20.531530 -0700
,,,0,0,0,,,,,,,,,,,,,,,,,,0,0,0,0,164.9134752,,,,,,,,,,,,,,,,,,,,,,,,,,,,,,,,,,,,,,,,,,,,,,,,,,,,,,,,,,,,,,,,,,negc_poss,30,-15,15,-15,"[5, 2, 1, 0.5]",lin,1,1,8,2,14,83,down,0.5,0,0,30,164.9068741,164.9134752,165.4031251,165.4031251,165.4772509,165.4772509,165.4772509,166.4394783,1,,,,,,,,,,,,,,,2418,1,2025-08-16_12h48.08.966,tilt_staircase,2024.2.4,None,2025-08-16 12h48.20.531530 -0700
,,,0,0,0,,,,,,,,,,,,,,,,,,0,0,0,0,166.4471773,,,,,,,,,,,,,,,,,,,,,,,,,,,,,,,,,,,,,,,,,,,,,,,,,,,,,,,,,,,,,,,,,,negc_noss,30,-15,15,-15,"[5, 2, 1, 0.5]",lin,1,1,8,4,15,84,up,0.5,0.5,0.5,,166.4405622,166.4471773,166.9378694,166.9378694,167.0080865,167.0080865,167.0080865,167.5593962,1,,,,,,,,,,,,,,,2418,1,2025-08-16_12h48.08.966,tilt_staircase,2024.2.4,None,2025-08-16 12h48.20.531530 -0700
,,,0,0,0,,,,,,,,,,,,,,,,,,0,0,0,0,167.5707928,,,,,,,,,,,,,,,,,,,,,,,,,,,,,,,,,,,,,,,,,,,,,,,,,,,,,,,,,,,,,,,,,,posc_poss,30,15,15,-15,"[5, 2, 1, 0.5]",lin,1,1,8,3,15,85,up,0.5,0,0,30,167.5601949,167.5707928,168.0541592,168.0541592,168.1374833,168.126609,168.126609,168.6284545,0,,,,,,,,,,,,,,,2418,1,2025-08-16_12h48.08.966,tilt_staircase,2024.2.4,None,2025-08-16 12h48.20.531530 -0700
,,,0,0,0,,,,,,,,,,,,,,,,,,0,0,0,0,168.6363315,,,,,,,,,,,,,,,,,,,,,,,,,,,,,,,,,,,,,,,,,,,,,,,,,,,,,,,,,,,,,,,,,,posc_noss,30,15,15,-15,"[5, 2, 1, 0.5]",lin,1,1,8,5,15,86,up,0.5,-0.5,-0.5,,168.6292513,168.6363315,169.1284506,169.1284506,169.2046038,169.2046038,169.2046038,169.9404104,0,,,,,,,,,,,,,,,2418,1,2025-08-16_12h48.08.966,tilt_staircase,2024.2.4,None,2025-08-16 12h48.20.531530 -0700
,,,0,0,0,,,,,,,,,,,,,,,,,,0,0,0,0,169.9481062,,,,,,,,,,,,,,,,,,,,,,,,,,,,,,,,,,,,,,,,,,,,,,,,,,,,,,,,,,,,,,,,,,negc_poss,30,-15,15,-15,"[5, 2, 1, 0.5]",lin,1,1,8,2,15,87,down,0.5,-0.5,-0.5,30,169.9417086,169.9481062,170.4376684,170.4376684,170.5109249,170.5109249,170.5109249,171.0982609,0,,,,,,,,,,,,,,,2418,1,2025-08-16_12h48.08.966,tilt_staircase,2024.2.4,None,2025-08-16 12h48.20.531530 -0700
,,,0,0,0,,,,,,,,,,,,,,,,,,0,0,0,0,171.103748,,,,,,,,,,,,,,,,,,,,,,,,,,,,,,,,,,,,,,,,,,,,,,,,,,,,,,,,,,,,,,,,,,negc_negs,30,-15,15,-15,"[5, 2, 1, 0.5]",lin,1,1,8,0,15,88,up,0.5,-2.5,-2.5,-30,171.0992366,171.103748,171.594336,171.594336,171.6776045,171.6713793,171.6713793,172.1078873,1,,,,,,,,,,,,,,,2418,1,2025-08-16_12h48.08.966,tilt_staircase,2024.2.4,None,2025-08-16 12h48.20.531530 -0700
,,,0,0,0,,,,,,,,,,,,,,,,,,0,0,0,0,172.1146625,,,,,,,,,,,,,,,,,,,,,,,,,,,,,,,,,,,,,,,,,,,,,,,,,,,,,,,,,,,,,,,,,,posc_negs,30,15,15,-15,"[5, 2, 1, 0.5]",lin,1,1,8,1,15,89,down,0.5,-3,-3,-30,172.1088915,172.1146625,172.6038067,172.6038067,172.6766837,172.6766837,172.6766837,173.3113944,1,,,,,,,,,,,,,,,2418,1,2025-08-16_12h48.08.966,tilt_staircase,2024.2.4,None,2025-08-16 12h48.20.531530 -0700
,,,0,0,0,,,,,,,,,,,,,,,,,,0,0,0,0,173.3197676,,,,,,,,,,,,,,,,,,,,,,,,,,,,,,,,,,,,,,,,,,,,,,,,,,,,,,,,,,,,,,,,,,negc_negs,30,-15,15,-15,"[5, 2, 1, 0.5]",lin,1,1,8,0,16,90,down,0.5,-3,-3,-30,173.3123905,173.3197676,173.8121612,173.8121612,173.8873212,173.8873212,173.8873212,174.7899254,1,,,,,,,,,,,,,,,2418,1,2025-08-16_12h48.08.966,tilt_staircase,2024.2.4,None,2025-08-16 12h48.20.531530 -0700
,,,0,0,0,,,,,,,,,,,,,,,,,,0,0,0,0,174.7986961,,,,,,,,,,,,,,,,,,,,,,,,,,,,,,,,,,,,,,,,,,,,,,,,,,,,,,,,,,,,,,,,,,posc_poss,30,15,15,-15,"[5, 2, 1, 0.5]",lin,1,1,8,3,16,91,up,0.5,0.5,0.5,30,174.7917609,174.7986961,175.2866976,175.2866976,175.3610345,175.3610345,175.3610345,176.0050298,1,,,,,,,,,,,,,,,2418,1,2025-08-16_12h48.08.966,tilt_staircase,2024.2.4,None,2025-08-16 12h48.20.531530 -0700
,,,0,0,0,,,,,,,,,,,,,,,,,,0,0,0,0,176.0130361,,,,,,,,,,,,,,,,,,,,,,,,,,,,,,,,,,,,,,,,,,,,,,,,,,,,,,,,,,,,,,,,,,negc_poss,30,-15,15,-15,"[5, 2, 1, 0.5]",lin,1,1,8,2,16,92,up,0.5,0,0,30,176.0059845,176.0130361,176.4955068,176.4955068,176.5746383,176.5706501,176.5706501,176.9720374,0,,,,,,,,,,,,,,,2418,1,2025-08-16_12h48.08.966,tilt_staircase,2024.2.4,None,2025-08-16 12h48.20.531530 -0700
,,,0,0,0,,,,,,,,,,,,,,,,,,0,0,0,0,176.9787618,,,,,,,,,,,,,,,,,,,,,,,,,,,,,,,,,,,,,,,,,,,,,,,,,,,,,,,,,,,,,,,,,,negc_noss,30,-15,15,-15,"[5, 2, 1, 0.5]",lin,1,1,8,4,16,93,down,0.5,0,0,,176.9730575,176.9787618,177.4629947,177.4629947,177.543447,177.543447,177.543447,178.189771,1,,,,,,,,,,,,,,,2418,1,2025-08-16_12h48.08.966,tilt_staircase,2024.2.4,None,2025-08-16 12h48.20.531530 -0700
,,,0,0,0,,,,,,,,,,,,,,,,,,0,0,0,0,178.1979219,,,,,,,,,,,,,,,,,,,,,,,,,,,,,,,,,,,,,,,,,,,,,,,,,,,,,,,,,,,,,,,,,,posc_negs,30,15,15,-15,"[5, 2, 1, 0.5]",lin,1,1,8,1,16,94,down,0.5,-3.5,-3.5,-30,178.1910637,178.1979219,178.6874818,178.6874818,178.7580707,178.7580707,178.7580707,179.5888941,0,,,,,,,,,,,,,,,2418,1,2025-08-16_12h48.08.966,tilt_staircase,2024.2.4,None,2025-08-16 12h48.20.531530 -0700
,,,0,0,0,,,,,,,,,,,,,,,,,,0,0,0,0,179.5959692,,,,,,,,,,,,,,,,,,,,,,,,,,,,,,,,,,,,,,,,,,,,,,,,,,,,,,,,,,,,,,,,,,posc_noss,30,15,15,-15,"[5, 2, 1, 0.5]",lin,1,1,8,5,16,95,up,0.5,0,0,,179.5899004,179.5959692,180.07864,180.07864,180.1605612,180.1545821,180.1545821,181.0066556,0,,,,,,,,,,,,,,,2418,1,2025-08-16_12h48.08.966,tilt_staircase,2024.2.4,None,2025-08-16 12h48.20.531530 -0700
,,,0,0,0,,,,,,,,,,,,,,,,,,0,0,0,0,181.0155457,,,,,,,,,,,,,,,,,,,,,,,,,,,,,,,,,,,,,,,,,,,,,,,,,,,,,,,,,,,,,,,,,,posc_poss,30,15,15,-15,"[5, 2, 1, 0.5]",lin,1,1,8,3,17,96,down,0.5,0,0,30,181.0084389,181.0155457,181.504046,181.504046,181.5746309,181.5746309,181.5746309,182.0061426,0,,,,,,,,,,,,,,,2418,1,2025-08-16_12h48.08.966,tilt_staircase,2024.2.4,None,2025-08-16 12h48.20.531530 -0700
,,,0,0,0,,,,,,,,,,,,,,,,,,0,0,0,0,182.0140303,,,,,,,,,,,,,,,,,,,,,,,,,,,,,,,,,,,,,,,,,,,,,,,,,,,,,,,,,,,,,,,,,,posc_negs,30,15,15,-15,"[5, 2, 1, 0.5]",lin,1,1,8,1,17,97,up,0.5,-3,-3,-30,182.0072385,182.0140303,182.5041464,182.5041464,182.5763889,182.5763889,182.5763889,183.0897917,0,,,,,,,,,,,,,,,2418,1,2025-08-16_12h48.08.966,tilt_staircase,2024.2.4,None,2025-08-16 12h48.20.531530 -0700
,,,0,0,0,,,,,,,,,,,,,,,,,,0,0,0,0,183.0976665,,,,,,,,,,,,,,,,,,,,,,,,,,,,,,,,,,,,,,,,,,,,,,,,,,,,,,,,,,,,,,,,,,negc_negs,30,-15,15,-15,"[5, 2, 1, 0.5]",lin,1,1,8,0,17,98,down,0.5,-3.5,-3.5,-30,183.0908814,183.0976665,183.5873688,183.5873688,183.6574896,183.6574896,183.6574896,184.4924261,1,,,,,,,,,,,,,,,2418,1,2025-08-16_12h48.08.966,tilt_staircase,2024.2.4,None,2025-08-16 12h48.20.531530 -0700
,,,0,0,0,,,,,,,,,,,,,,,,,,0,0,0,0,184.5041011,,,,,,,,,,,,,,,,,,,,,,,,,,,,,,,,,,,,,,,,,,,,,,,,,,,,,,,,,,,,,,,,,,negc_noss,30,-15,15,-15,"[5, 2, 1, 0.5]",lin,1,1,8,4,17,99,down,0.5,-0.5,-0.5,,184.4934065,184.5041011,184.9877746,184.9877746,185.0711117,185.0596277,185.0596277,185.5386392,1,,,,,,,,,,,,,,,2418,1,2025-08-16_12h48.08.966,tilt_staircase,2024.2.4,None,2025-08-16 12h48.20.531530 -0700
,,,0,0,0,,,,,,,,,,,,,,,,,,0,0,0,0,185.545603,,,,,,,,,,,,,,,,,,,,,,,,,,,,,,,,,,,,,,,,,,,,,,,,,,,,,,,,,,,,,,,,,,negc_poss,30,-15,15,-15,"[5, 2, 1, 0.5]",lin,1,1,8,2,17,100,up,0.5,0.5,0.5,30,185.539636,185.545603,186.0289841,186.0289841,186.1105268,186.1044982,186.1044982,188.2565822,1,,,,,,,,,,,,,,,2418,1,2025-08-16_12h48.08.966,tilt_staircase,2024.2.4,None,2025-08-16 12h48.20.531530 -0700
,,,0,0,0,,,,,,,,,,,,,,,,,,0,0,0,0,188.2647504,,,,,,,,,,,,,,,,,,,,,,,,,,,,,,,,,,,,,,,,,,,,,,,,,,,,,,,,,,,,,,,,,,posc_noss,30,15,15,-15,"[5, 2, 1, 0.5]",lin,1,1,8,5,17,101,up,0.5,0.5,0.5,,188.2577679,188.2647504,188.7530957,188.7530957,188.8268981,188.8268981,188.8268981,189.844772,1,,,,,,,,,,,,,,,2418,1,2025-08-16_12h48.08.966,tilt_staircase,2024.2.4,None,2025-08-16 12h48.20.531530 -0700
,,,0,0,0,,,,,,,,,,,,,,,,,,0,0,0,0,189.8531815,,,,,,,,,,,,,,,,,,,,,,,,,,,,,,,,,,,,,,,,,,,,,,,,,,,,,,,,,,,,,,,,,,negc_poss,30,-15,15,-15,"[5, 2, 1, 0.5]",lin,1,1,8,2,18,102,down,0.5,0,0,30,189.8459193,189.8531815,190.3468164,190.3468164,190.421189,190.421189,190.421189,190.9784757,0,,,,,,,,,,,,,,,2418,1,2025-08-16_12h48.08.966,tilt_staircase,2024.2.4,None,2025-08-16 12h48.20.531530 -0700
,,,0,0,0,,,,,,,,,,,,,,,,,,0,0,0,0,190.986376,,,,,,,,,,,,,,,,,,,,,,,,,,,,,,,,,,,,,,,,,,,,,,,,,,,,,,,,,,,,,,,,,,negc_noss,30,-15,15,-15,"[5, 2, 1, 0.5]",lin,1,1,8,4,18,103,down,0.5,-1,-1,,190.979379,190.986376,191.4791815,191.4791815,191.5536211,191.5536211,191.5536211,191.9889822,0,,,,,,,,,,,,,,,2418,1,2025-08-16_12h48.08.966,tilt_staircase,2024.2.4,None,2025-08-16 12h48.20.531530 -0700
,,,0,0,0,,,,,,,,,,,,,,,,,,0,0,0,0,191.9964429,,,,,,,,,,,,,,,,,,,,,,,,,,,,,,,,,,,,,,,,,,,,,,,,,,,,,,,,,,,,,,,,,,posc_noss,30,15,15,-15,"[5, 2, 1, 0.5]",lin,1,1,8,5,18,104,down,0.5,0,0,,191.9898538,191.9964429,192.4864286,192.4864286,192.558827,192.558827,192.558827,193.3427932,1,,,,,,,,,,,,,,,2418,1,2025-08-16_12h48.08.966,tilt_staircase,2024.2.4,None,2025-08-16 12h48.20.531530 -0700
,,,0,0,0,,,,,,,,,,,,,,,,,,0,0,0,0,193.3532104,,,,,,,,,,,,,,,,,,,,,,,,,,,,,,,,,,,,,,,,,,,,,,,,,,,,,,,,,,,,,,,,,,posc_poss,30,15,15,-15,"[5, 2, 1, 0.5]",lin,1,1,8,3,18,105,up,0.5,0.5,0.5,30,193.3438163,193.3532104,193.8366529,193.8366529,193.9206061,193.9077834,193.9077834,194.8392222,1,,,,,,,,,,,,,,,2418,1,2025-08-16_12h48.08.966,tilt_staircase,2024.2.4,None,2025-08-16 12h48.20.531530 -0700
,,,0,0,0,,,,,,,,,,,,,,,,,,0,0,0,0,194.8474647,,,,,,,,,,,,,,,,,,,,,,,,,,,,,,,,,,,,,,,,,,,,,,,,,,,,,,,,,,,,,,,,,,posc_negs,30,15,15,-15,"[5, 2, 1, 0.5]",lin,1,1,8,1,18,106,up,0.5,-2.5,-2.5,-30,194.8404458,194.8474647,195.3365837,195.3365837,195.4104938,195.4104938,195.4104938,195.8624371,1,,,,,,,,,,,,,,,2418,1,2025-08-16_12h48.08.966,tilt_staircase,2024.2.4,None,2025-08-16 12h48.20.531530 -0700
,,,0,0,0,,,,,,,,,,,,,,,,,,0,0,0,0,195.8701053,,,,,,,,,,,,,,,,,,,,,,,,,,,,,,,,,,,,,,,,,,,,,,,,,,,,,,,,,,,,,,,,,,negc_negs,30,-15,15,-15,"[5, 2, 1, 0.5]",lin,1,1,8,0,18,107,down,0.5,-4,-4,-30,195.8634209,195.8701053,196.3622995,196.3622995,196.4374269,196.4374269,196.4374269,197.0759394,0,,,,,,,,,,,,,,,2418,1,2025-08-16_12h48.08.966,tilt_staircase,2024.2.4,None,2025-08-16 12h48.20.531530 -0700
,,,0,0,0,,,,,,,,,,,,,,,,,,0,0,0,0,197.0868614,,,,,,,,,,,,,,,,,,,,,,,,,,,,,,,,,,,,,,,,,,,,,,,,,,,,,,,,,,,,,,,,,,posc_poss,30,15,15,-15,"[5, 2, 1, 0.5]",lin,1,1,8,3,19,108,down,0.5,0,0,30,197.0769389,197.0868614,197.5706106,197.5706106,197.6544078,197.6402966,197.6402966,198.1123594,0,,,,,,,,,,,,,,,2418,1,2025-08-16_12h48.08.966,tilt_staircase,2024.2.4,None,2025-08-16 12h48.20.531530 -0700
,,,0,0,0,,,,,,,,,,,,,,,,,,0,0,0,0,198.1206727,,,,,,,,,,,,,,,,,,,,,,,,,,,,,,,,,,,,,,,,,,,,,,,,,,,,,,,,,,,,,,,,,,negc_negs,30,-15,15,-15,"[5, 2, 1, 0.5]",lin,1,1,8,0,19,109,up,0.5,-3.5,-3.5,-30,198.1136777,198.1206727,198.6102117,198.6102117,198.6879836,198.6879836,198.6879836,199.1730278,0,,,,,,,,,,,,,,,2418,1,2025-08-16_12h48.08.966,tilt_staircase,2024.2.4,None,2025-08-16 12h48.20.531530 -0700
,,,0,0,0,,,,,,,,,,,,,,,,,,0,0,0,0,199.1817718,,,,,,,,,,,,,,,,,,,,,,,,,,,,,,,,,,,,,,,,,,,,,,,,,,,,,,,,,,,,,,,,,,posc_noss,30,15,15,-15,"[5, 2, 1, 0.5]",lin,1,1,8,5,19,110,down,0.5,-0.5,-0.5,,199.1747997,199.1817718,199.670813,199.670813,199.743629,199.743629,199.743629,200.1291456,0,,,,,,,,,,,,,,,2418,1,2025-08-16_12h48.08.966,tilt_staircase,2024.2.4,None,2025-08-16 12h48.20.531530 -0700
,,,0,0,0,,,,,,,,,,,,,,,,,,0,0,0,0,200.1372912,,,,,,,,,,,,,,,,,,,,,,,,,,,,,,,,,,,,,,,,,,,,,,,,,,,,,,,,,,,,,,,,,,negc_poss,30,-15,15,-15,"[5, 2, 1, 0.5]",lin,1,1,8,2,19,111,up,0.5,0.5,0.5,30,200.130411,200.1372912,200.6273491,200.6273491,200.7042225,200.7042225,200.7042225,201.1890406,0,,,,,,,,,,,,,,,2418,1,2025-08-16_12h48.08.966,tilt_staircase,2024.2.4,None,2025-08-16 12h48.20.531530 -0700
,,,0,0,0,,,,,,,,,,,,,,,,,,0,0,0,0,201.1963067,,,,,,,,,,,,,,,,,,,,,,,,,,,,,,,,,,,,,,,,,,,,,,,,,,,,,,,,,,,,,,,,,,negc_noss,30,-15,15,-15,"[5, 2, 1, 0.5]",lin,1,1,8,4,19,112,up,0.5,-0.5,-0.5,,201.1903361,201.1963067,201.6865019,201.6865019,201.7583723,201.7583723,201.7583723,202.1561668,0,,,,,,,,,,,,,,,2418,1,2025-08-16_12h48.08.966,tilt_staircase,2024.2.4,None,2025-08-16 12h48.20.531530 -0700
,,,0,0,0,,,,,,,,,,,,,,,,,,0,0,0,0,202.164941,,,,,,,,,,,,,,,,,,,,,,,,,,,,,,,,,,,,,,,,,,,,,,,,,,,,,,,,,,,,,,,,,,posc_negs,30,15,15,-15,"[5, 2, 1, 0.5]",lin,1,1,8,1,19,113,down,0.5,-3,-3,-30,202.1575194,202.164941,202.6541243,202.6541243,202.7270851,202.7270851,202.7270851,203.2958944,0,,,,,,,,,,,,,,,2418,1,2025-08-16_12h48.08.966,tilt_staircase,2024.2.4,None,2025-08-16 12h48.20.531530 -0700
,,,0,0,0,,,,,,,,,,,,,,,,,,0,0,0,0,203.3041674,,,,,,,,,,,,,,,,,,,,,,,,,,,,,,,,,,,,,,,,,,,,,,,,,,,,,,,,,,,,,,,,,,posc_negs,30,15,15,-15,"[5, 2, 1, 0.5]",lin,1,1,8,1,20,114,up,0.5,-2.5,-2.5,-30,203.2972328,203.3041674,203.7953878,203.7953878,203.8706827,203.8706827,203.8706827,204.3205514,1,,,,,,,,,,,,,,,2418,1,2025-08-16_12h48.08.966,tilt_staircase,2024.2.4,None,2025-08-16 12h48.20.531530 -0700
,,,0,0,0,,,,,,,,,,,,,,,,,,0,0,0,0,204.3259844,,,,,,,,,,,,,,,,,,,,,,,,,,,,,,,,,,,,,,,,,,,,,,,,,,,,,,,,,,,,,,,,,,posc_poss,30,15,15,-15,"[5, 2, 1, 0.5]",lin,1,1,8,3,20,115,up,0.5,0.5,0.5,30,204.3215418,204.3259844,204.8106821,204.8106821,204.8943201,204.887422,204.887422,205.6383172,0,,,,,,,,,,,,,,,2418,1,2025-08-16_12h48.08.966,tilt_staircase,2024.2.4,None,2025-08-16 12h48.20.531530 -0700
,,,0,0,0,,,,,,,,,,,,,,,,,,0,0,0,0,205.6457225,,,,,,,,,,,,,,,,,,,,,,,,,,,,,,,,,,,,,,,,,,,,,,,,,,,,,,,,,,,,,,,,,,negc_negs,30,-15,15,-15,"[5, 2, 1, 0.5]",lin,1,1,8,0,20,116,up,0.5,-3,-3,-30,205.6392811,205.6457225,206.1367843,206.1367843,206.2103368,206.2103368,206.2103368,206.6890167,0,,,,,,,,,,,,,,,2418,1,2025-08-16_12h48.08.966,tilt_staircase,2024.2.4,None,2025-08-16 12h48.20.531530 -0700
,,,0,0,0,,,,,,,,,,,,,,,,,,0,0,0,0,206.6969085,,,,,,,,,,,,,,,,,,,,,,,,,,,,,,,,,,,,,,,,,,,,,,,,,,,,,,,,,,,,,,,,,,negc_poss,30,-15,15,-15,"[5, 2, 1, 0.5]",lin,1,1,8,2,20,117,up,0.5,1,1,30,206.6900146,206.6969085,207.1868111,207.1868111,207.2592603,207.2592603,207.2592603,207.9230614,1,,,,,,,,,,,,,,,2418,1,2025-08-16_12h48.08.966,tilt_staircase,2024.2.4,None,2025-08-16 12h48.20.531530 -0700
,,,0,0,0,,,,,,,,,,,,,,,,,,0,0,0,0,207.9320012,,,,,,,,,,,,,,,,,,,,,,,,,,,,,,,,,,,,,,,,,,,,,,,,,,,,,,,,,,,,,,,,,,posc_noss,30,15,15,-15,"[5, 2, 1, 0.5]",lin,1,1,8,5,20,118,up,0.5,0,0,,207.9248904,207.9320012,208.4197869,208.4197869,208.4912725,208.4912725,208.4912725,209.5056626,0,,,,,,,,,,,,,,,2418,1,2025-08-16_12h48.08.966,tilt_staircase,2024.2.4,None,2025-08-16 12h48.20.531530 -0700
,,,0,0,0,,,,,,,,,,,,,,,,,,0,0,0,0,209.5132685,,,,,,,,,,,,,,,,,,,,,,,,,,,,,,,,,,,,,,,,,,,,,,,,,,,,,,,,,,,,,,,,,,negc_noss,30,-15,15,-15,"[5, 2, 1, 0.5]",lin,1,1,8,4,20,119,up,0.5,0,0,,209.5068876,209.5132685,210.0040911,210.0040911,210.0768552,210.0768552,210.0768552,212.3897808,0,,,,,,,,,,,,,,,2418,1,2025-08-16_12h48.08.966,tilt_staircase,2024.2.4,None,2025-08-16 12h48.20.531530 -0700
,,,0,0,0,,,,,,,,,,,,,,,,,,0,0,0,0,212.3982078,,,,,,,,,,,,,,,,,,,,,,,,,,,,,,,,,,,,,,,,,,,,,,,,,,,,,,,,,,,,,,,,,,negc_negs,30,-15,15,-15,"[5, 2, 1, 0.5]",lin,1,1,8,0,21,120,up,0.5,-2.5,-2.5,-30,212.3911022,212.3982078,212.8865678,212.8865678,212.9579707,212.9579707,212.9579707,213.5556013,0,,,,,,,,,,,,,,,2418,1,2025-08-16_12h48.08.966,tilt_staircase,2024.2.4,None,2025-08-16 12h48.20.531530 -0700
,,,0,0,0,,,,,,,,,,,,,,,,,,0,0,0,0,213.5635206,,,,,,,,,,,,,,,,,,,,,,,,,,,,,,,,,,,,,,,,,,,,,,,,,,,,,,,,,,,,,,,,,,negc_noss,30,-15,15,-15,"[5, 2, 1, 0.5]",lin,1,1,8,4,21,121,up,0.5,0.5,0.5,,213.5566105,213.5635206,214.05446,214.05446,214.1267612,214.1267612,214.1267612,214.7285347,1,,,,,,,,,,,,,,,2418,1,2025-08-16_12h48.08.966,tilt_staircase,2024.2.4,None,2025-08-16 12h48.20.531530 -0700
,,,0,0,0,,,,,,,,,,,,,,,,,,0,0,0,0,214.7365656,,,,,,,,,,,,,,,,,,,,,,,,,,,,,,,,,,,,,,,,,,,,,,,,,,,,,,,,,,,,,,,,,,posc_negs,30,15,15,-15,"[5, 2, 1, 0.5]",lin,1,1,8,1,21,122,down,0.5,-3,-3,-30,214.7295721,214.7365656,215.2306001,215.2306001,215.3044175,215.3044175,215.3044175,216.1730492,0,,,,,,,,,,,,,,,2418,1,2025-08-16_12h48.08.966,tilt_staircase,2024.2.4,None,2025-08-16 12h48.20.531530 -0700
,,,0,0,0,,,,,,,,,,,,,,,,,,0,0,0,0,216.1817697,,,,,,,,,,,,,,,,,,,,,,,,,,,,,,,,,,,,,,,,,,,,,,,,,,,,,,,,,,,,,,,,,,posc_poss,30,15,15,-15,"[5, 2, 1, 0.5]",lin,1,1,8,3,21,123,up,0.5,1,1,30,216.1748579,216.1817697,216.6703954,216.6703954,216.7438097,216.7438097,216.7438097,217.3234682,1,,,,,,,,,,,,,,,2418,1,2025-08-16_12h48.08.966,tilt_staircase,2024.2.4,None,2025-08-16 12h48.20.531530 -0700
,,,0,0,0,,,,,,,,,,,,,,,,,,0,0,0,0,217.3318149,,,,,,,,,,,,,,,,,,,,,,,,,,,,,,,,,,,,,,,,,,,,,,,,,,,,,,,,,,,,,,,,,,posc_noss,30,15,15,-15,"[5, 2, 1, 0.5]",lin,1,1,8,5,21,124,up,0.5,0.5,0.5,,217.3250372,217.3318149,217.8199082,217.8199082,217.8930576,217.8930576,217.8930576,218.4720936,1,,,,,,,,,,,,,,,2418,1,2025-08-16_12h48.08.966,tilt_staircase,2024.2.4,None,2025-08-16 12h48.20.531530 -0700
,,,0,0,0,,,,,,,,,,,,,,,,,,0,0,0,0,218.4854394,,,,,,,,,,,,,,,,,,,,,,,,,,,,,,,,,,,,,,,,,,,,,,,,,,,,,,,,,,,,,,,,,,negc_poss,30,-15,15,-15,"[5, 2, 1, 0.5]",lin,1,1,8,2,21,125,down,0.5,0.5,0.5,30,218.4746777,218.4854394,218.9708502,218.9708502,219.0440047,219.0440047,219.0440047,219.6956922,0,,,,,,,,,,,,,,,2418,1,2025-08-16_12h48.08.966,tilt_staircase,2024.2.4,None,2025-08-16 12h48.20.531530 -0700
,,,0,0,0,,,,,,,,,,,,,,,,,,0,0,0,0,219.7208029,,,,,,,,,,,,,,,,,,,,,,,,,,,,,,,,,,,,,,,,,,,,,,,,,,,,,,,,,,,,,,,,,,negc_negs,30,-15,15,-15,"[5, 2, 1, 0.5]",lin,1,1,8,0,22,126,up,0.5,-2,-2,-30,219.6970871,219.7208029,220.1964212,220.1964212,220.2700122,220.2700122,220.2700122,220.9464134,0,,,,,,,,,,,,,,,2418,1,2025-08-16_12h48.08.966,tilt_staircase,2024.2.4,None,2025-08-16 12h48.20.531530 -0700
,,,0,0,0,,,,,,,,,,,,,,,,,,0,0,0,0,220.9540454,,,,,,,,,,,,,,,,,,,,,,,,,,,,,,,,,,,,,,,,,,,,,,,,,,,,,,,,,,,,,,,,,,negc_poss,30,-15,15,-15,"[5, 2, 1, 0.5]",lin,1,1,8,2,22,127,up,0.5,1,1,30,220.9472954,220.9540454,221.4466963,221.4466963,221.5206579,221.5206579,221.5206579,222.256449,0,,,,,,,,,,,,,,,2418,1,2025-08-16_12h48.08.966,tilt_staircase,2024.2.4,None,2025-08-16 12h48.20.531530 -0700
,,,0,0,0,,,,,,,,,,,,,,,,,,0,0,0,0,222.2649703,,,,,,,,,,,,,,,,,,,,,,,,,,,,,,,,,,,,,,,,,,,,,,,,,,,,,,,,,,,,,,,,,,posc_poss,30,15,15,-15,"[5, 2, 1, 0.5]",lin,1,1,8,3,22,128,down,0.5,0.5,0.5,30,222.2578754,222.2649703,222.7531776,222.7531776,222.8273525,222.8273525,222.8273525,223.4558062,0,,,,,,,,,,,,,,,2418,1,2025-08-16_12h48.08.966,tilt_staircase,2024.2.4,None,2025-08-16 12h48.20.531530 -0700
,,,0,0,0,,,,,,,,,,,,,,,,,,0,0,0,0,223.4637392,,,,,,,,,,,,,,,,,,,,,,,,,,,,,,,,,,,,,,,,,,,,,,,,,,,,,,,,,,,,,,,,,,posc_negs,30,15,15,-15,"[5, 2, 1, 0.5]",lin,1,1,8,1,22,129,up,0.5,-2.5,-2.5,-30,223.4567862,223.4637392,223.9540125,223.9540125,224.0251874,224.0251874,224.0251874,224.4396073,1,,,,,,,,,,,,,,,2418,1,2025-08-16_12h48.08.966,tilt_staircase,2024.2.4,None,2025-08-16 12h48.20.531530 -0700
,,,0,0,0,,,,,,,,,,,,,,,,,,0,0,0,0,224.4481613,,,,,,,,,,,,,,,,,,,,,,,,,,,,,,,,,,,,,,,,,,,,,,,,,,,,,,,,,,,,,,,,,,negc_noss,30,-15,15,-15,"[5, 2, 1, 0.5]",lin,1,1,8,4,22,130,down,0.5,0,0,,224.4412758,224.4481613,224.9373503,224.9373503,225.0086794,225.0086794,225.0086794,225.9097499,0,,,,,,,,,,,,,,,2418,1,2025-08-16_12h48.08.966,tilt_staircase,2024.2.4,None,2025-08-16 12h48.20.531530 -0700
,,,0,0,0,,,,,,,,,,,,,,,,,,0,0,0,0,225.9203658,,,,,,,,,,,,,,,,,,,,,,,,,,,,,,,,,,,,,,,,,,,,,,,,,,,,,,,,,,,,,,,,,,posc_noss,30,15,15,-15,"[5, 2, 1, 0.5]",lin,1,1,8,5,22,131,down,0.5,0,0,,225.9106432,225.9203658,226.4029482,226.4029482,226.4868629,226.477534,226.477534,226.9215434,0,,,,,,,,,,,,,,,2418,1,2025-08-16_12h48.08.966,tilt_staircase,2024.2.4,None,2025-08-16 12h48.20.531530 -0700
,,,0,0,0,,,,,,,,,,,,,,,,,,0,0,0,0,226.9290412,,,,,,,,,,,,,,,,,,,,,,,,,,,,,,,,,,,,,,,,,,,,,,,,,,,,,,,,,,,,,,,,,,posc_noss,30,15,15,-15,"[5, 2, 1, 0.5]",lin,1,1,8,5,23,132,up,0.5,0.5,0.5,,226.922507,226.9290412,227.4131777,227.4131777,227.491252,227.4873068,227.4873068,228.0054758,1,,,,,,,,,,,,,,,2418,1,2025-08-16_12h48.08.966,tilt_staircase,2024.2.4,None,2025-08-16 12h48.20.531530 -0700
,,,0,0,0,,,,,,,,,,,,,,,,,,0,0,0,0,228.0132642,,,,,,,,,,,,,,,,,,,,,,,,,,,,,,,,,,,,,,,,,,,,,,,,,,,,,,,,,,,,,,,,,,posc_negs,30,15,15,-15,"[5, 2, 1, 0.5]",lin,1,1,8,1,23,133,down,0.5,-3,-3,-30,228.0064931,228.0132642,228.5040351,228.5040351,228.5767114,228.5767114,228.5767114,229.0898915,0,,,,,,,,,,,,,,,2418,1,2025-08-16_12h48.08.966,tilt_staircase,2024.2.4,None,2025-08-16 12h48.20.531530 -0700
,,,0,0,0,,,,,,,,,,,,,,,,,,0,0,0,0,229.0981837,,,,,,,,,,,,,,,,,,,,,,,,,,,,,,,,,,,,,,,,,,,,,,,,,,,,,,,,,,,,,,,,,,posc_poss,30,15,15,-15,"[5, 2, 1, 0.5]",lin,1,1,8,3,23,134,up,0.5,1,1,30,229.0915349,229.0981837,229.5872442,229.5872442,229.6585139,229.6585139,229.6585139,230.856098,1,,,,,,,,,,,,,,,2418,1,2025-08-16_12h48.08.966,tilt_staircase,2024.2.4,None,2025-08-16 12h48.20.531530 -0700
,,,0,0,0,,,,,,,,,,,,,,,,,,0,0,0,0,230.8608634,,,,,,,,,,,,,,,,,,,,,,,,,,,,,,,,,,,,,,,,,,,,,,,,,,,,,,,,,,,,,,,,,,negc_negs,30,-15,15,-15,"[5, 2, 1, 0.5]",lin,1,1,8,0,23,135,up,0.5,-1.5,-1.5,-30,230.8571463,230.8608634,231.353077,231.353077,231.4268585,231.4268585,231.4268585,231.88715,1,,,,,,,,,,,,,,,2418,1,2025-08-16_12h48.08.966,tilt_staircase,2024.2.4,None,2025-08-16 12h48.20.531530 -0700
,,,0,0,0,,,,,,,,,,,,,,,,,,0,0,0,0,231.8928721,,,,,,,,,,,,,,,,,,,,,,,,,,,,,,,,,,,,,,,,,,,,,,,,,,,,,,,,,,,,,,,,,,negc_poss,30,-15,15,-15,"[5, 2, 1, 0.5]",lin,1,1,8,2,23,136,up,0.5,1.5,1.5,30,231.8875922,231.8928721,232.379832,232.379832,232.4586525,232.4586525,232.4586525,233.2394353,1,,,,,,,,,,,,,,,2418,1,2025-08-16_12h48.08.966,tilt_staircase,2024.2.4,None,2025-08-16 12h48.20.531530 -0700
,,,0,0,0,,,,,,,,,,,,,,,,,,0,0,0,0,233.2500287,,,,,,,,,,,,,,,,,,,,,,,,,,,,,,,,,,,,,,,,,,,,,,,,,,,,,,,,,,,,,,,,,,negc_noss,30,-15,15,-15,"[5, 2, 1, 0.5]",lin,1,1,8,4,23,137,up,0.5,0.5,0.5,,233.2413563,233.2500287,233.7368886,233.7368886,233.8098404,233.8098404,233.8098404,234.4232183,1,,,,,,,,,,,,,,,2418,1,2025-08-16_12h48.08.966,tilt_staircase,2024.2.4,None,2025-08-16 12h48.20.531530 -0700
,,,0,0,0,,,,,,,,,,,,,,,,,,0,0,0,0,234.4321695,,,,,,,,,,,,,,,,,,,,,,,,,,,,,,,,,,,,,,,,,,,,,,,,,,,,,,,,,,,,,,,,,,posc_noss,30,15,15,-15,"[5, 2, 1, 0.5]",lin,1,1,8,5,24,138,down,0.5,0,0,,234.4247937,234.4321695,234.9206308,234.9206308,234.9907142,234.9907142,234.9907142,235.6958047,0,,,,,,,,,,,,,,,2418,1,2025-08-16_12h48.08.966,tilt_staircase,2024.2.4,None,2025-08-16 12h48.20.531530 -0700
,,,0,0,0,,,,,,,,,,,,,,,,,,0,0,0,0,235.7039613,,,,,,,,,,,,,,,,,,,,,,,,,,,,,,,,,,,,,,,,,,,,,,,,,,,,,,,,,,,,,,,,,,posc_negs,30,15,15,-15,"[5, 2, 1, 0.5]",lin,1,1,8,1,24,139,up,0.5,-2.5,-2.5,-30,235.6968516,235.7039613,236.1958464,236.1958464,236.2711638,236.2711638,236.2711638,236.8063231,0,,,,,,,,,,,,,,,2418,1,2025-08-16_12h48.08.966,tilt_staircase,2024.2.4,None,2025-08-16 12h48.20.531530 -0700
,,,0,0,0,,,,,,,,,,,,,,,,,,0,0,0,0,236.8142051,,,,,,,,,,,,,,,,,,,,,,,,,,,,,,,,,,,,,,,,,,,,,,,,,,,,,,,,,,,,,,,,,,negc_negs,30,-15,15,-15,"[5, 2, 1, 0.5]",lin,1,1,8,0,24,140,down,0.5,-2,-2,-30,236.80737,236.8142051,237.3035007,237.3035007,237.3769931,237.3769931,237.3769931,238.1726653,1,,,,,,,,,,,,,,,2418,1,2025-08-16_12h48.08.966,tilt_staircase,2024.2.4,None,2025-08-16 12h48.20.531530 -0700
,,,0,0,0,,,,,,,,,,,,,,,,,,0,0,0,0,238.180447,,,,,,,,,,,,,,,,,,,,,,,,,,,,,,,,,,,,,,,,,,,,,,,,,,,,,,,,,,,,,,,,,,negc_poss,30,-15,15,-15,"[5, 2, 1, 0.5]",lin,1,1,8,2,24,141,down,0.5,1,1,30,238.1736685,238.180447,238.6710202,238.6710202,238.7423126,238.7423126,238.7423126,239.4058417,1,,,,,,,,,,,,,,,2418,1,2025-08-16_12h48.08.966,tilt_staircase,2024.2.4,None,2025-08-16 12h48.20.531530 -0700
,,,0,0,0,,,,,,,,,,,,,,,,,,0,0,0,0,239.414003,,,,,,,,,,,,,,,,,,,,,,,,,,,,,,,,,,,,,,,,,,,,,,,,,,,,,,,,,,,,,,,,,,posc_poss,30,15,15,-15,"[5, 2, 1, 0.5]",lin,1,1,8,3,24,142,down,0.5,0.5,0.5,30,239.4069153,239.414003,239.9028293,239.9028293,239.9764665,239.9764665,239.9764665,240.4481913,0,,,,,,,,,,,,,,,2418,1,2025-08-16_12h48.08.966,tilt_staircase,2024.2.4,None,2025-08-16 12h48.20.531530 -0700
,,,0,0,0,,,,,,,,,,,,,,,,,,0,0,0,0,240.4537122,,,,,,,,,,,,,,,,,,,,,,,,,,,,,,,,,,,,,,,,,,,,,,,,,,,,,,,,,,,,,,,,,,negc_noss,30,-15,15,-15,"[5, 2, 1, 0.5]",lin,1,1,8,4,24,143,down,0.5,0,0,,240.4492115,240.4537122,240.9443274,240.9443274,241.0254188,241.0208581,241.0208581,241.5114912,1,,,,,,,,,,,,,,,2418,1,2025-08-16_12h48.08.966,tilt_staircase,2024.2.4,None,2025-08-16 12h48.20.531530 -0700
,,,0,0,0,,,,,,,,,,,,,,,,,,0,0,0,0,241.5194577,,,,,,,,,,,,,,,,,,,,,,,,,,,,,,,,,,,,,,,,,,,,,,,,,,,,,,,,,,,,,,,,,,negc_noss,30,-15,15,-15,"[5, 2, 1, 0.5]",lin,1,1,8,4,25,144,down,0.5,-0.5,-0.5,,241.5123064,241.5194577,242.0106492,242.0106492,242.0873779,242.0873779,242.0873779,242.6775652,0,,,,,,,,,,,,,,,2418,1,2025-08-16_12h48.08.966,tilt_staircase,2024.2.4,None,2025-08-16 12h48.20.531530 -0700
,,,0,0,0,,,,,,,,,,,,,,,,,,0,0,0,0,242.6860942,,,,,,,,,,,,,,,,,,,,,,,,,,,,,,,,,,,,,,,,,,,,,,,,,,,,,,,,,,,,,,,,,,negc_negs,30,-15,15,-15,"[5, 2, 1, 0.5]",lin,1,1,8,0,25,145,down,0.5,-2.5,-2.5,-30,242.6792505,242.6860942,243.1789659,243.1789659,243.2543528,243.2543528,243.2543528,243.9394303,0,,,,,,,,,,,,,,,2418,1,2025-08-16_12h48.08.966,tilt_staircase,2024.2.4,None,2025-08-16 12h48.20.531530 -0700
,,,0,0,0,,,,,,,,,,,,,,,,,,0,0,0,0,243.9475838,,,,,,,,,,,,,,,,,,,,,,,,,,,,,,,,,,,,,,,,,,,,,,,,,,,,,,,,,,,,,,,,,,posc_poss,30,15,15,-15,"[5, 2, 1, 0.5]",lin,1,1,8,3,25,146,up,0.5,1,1,30,243.9407576,243.9475838,244.4363405,244.4363405,244.5096633,244.5096633,244.5096633,244.9395984,1,,,,,,,,,,,,,,,2418,1,2025-08-16_12h48.08.966,tilt_staircase,2024.2.4,None,2025-08-16 12h48.20.531530 -0700
,,,0,0,0,,,,,,,,,,,,,,,,,,0,0,0,0,244.9474747,,,,,,,,,,,,,,,,,,,,,,,,,,,,,,,,,,,,,,,,,,,,,,,,,,,,,,,,,,,,,,,,,,posc_noss,30,15,15,-15,"[5, 2, 1, 0.5]",lin,1,1,8,5,25,147,up,0.5,0.5,0.5,,244.9409829,244.9474747,245.4363127,245.4363127,245.5099918,245.5099918,245.5099918,245.9592146,1,,,,,,,,,,,,,,,2418,1,2025-08-16_12h48.08.966,tilt_staircase,2024.2.4,None,2025-08-16 12h48.20.531530 -0700
,,,0,0,0,,,,,,,,,,,,,,,,,,0,0,0,0,245.9705508,,,,,,,,,,,,,,,,,,,,,,,,,,,,,,,,,,,,,,,,,,,,,,,,,,,,,,,,,,,,,,,,,,negc_poss,30,-15,15,-15,"[5, 2, 1, 0.5]",lin,1,1,8,2,25,148,down,0.5,0.5,0.5,30,245.9602145,245.9705508,246.4538222,246.4538222,246.5374209,246.5251731,246.5251731,246.9591565,0,,,,,,,,,,,,,,,2418,1,2025-08-16_12h48.08.966,tilt_staircase,2024.2.4,None,2025-08-16 12h48.20.531530 -0700
,,,0,0,0,,,,,,,,,,,,,,,,,,0,0,0,0,246.9705935,,,,,,,,,,,,,,,,,,,,,,,,,,,,,,,,,,,,,,,,,,,,,,,,,,,,,,,,,,,,,,,,,,posc_negs,30,15,15,-15,"[5, 2, 1, 0.5]",lin,1,1,8,1,25,149,up,0.5,-2,-2,-30,246.9601654,246.9705935,247.4528446,247.4528446,247.5372373,247.5237082,247.5237082,247.922301,1,,,,,,,,,,,,,,,2418,1,2025-08-16_12h48.08.966,tilt_staircase,2024.2.4,None,2025-08-16 12h48.20.531530 -0700
,,,1,0,1,,,,,,,,,,,,,,,,,,1,0,1,0,301.2571131,,,,,,,,,,,,,,,,,,,,,,,,,,,,,,,,,,,,,,,,,,,,,,,,,,,,,,,,,,,,,,,,,,negc_noss,30,-15,15,-15,"[5, 2, 1, 0.5]",lin,1,1,8,4,1,0,start,5,-15,-15,,301.2494666,301.2571131,301.7040275,301.7040275,301.774728,301.774728,301.774728,302.2063704,0,247.922462,247.931017,247.931017,301.2068344,space,53.26801779,None,,,,,,,,2418,1,2025-08-16_12h48.08.966,tilt_staircase,2024.2.4,None,2025-08-16 12h48.20.531530 -0700
,,,1,0,1,,,,,,,,,,,,,,,,,,1,0,1,0,302.2150647,,,,,,,,,,,,,,,,,,,,,,,,,,,,,,,,,,,,,,,,,,,,,,,,,,,,,,,,,,,,,,,,,,posc_negs,30,15,15,-15,"[5, 2, 1, 0.5]",lin,1,1,8,1,1,1,start,5,15,15,-30,302.2083042,302.2150647,302.7038348,302.7038348,302.776939,302.776939,302.776939,303.1062608,1,,,,,,,,,,,,,,,2418,1,2025-08-16_12h48.08.966,tilt_staircase,2024.2.4,None,2025-08-16 12h48.20.531530 -0700
,,,1,0,1,,,,,,,,,,,,,,,,,,1,0,1,0,303.1147407,,,,,,,,,,,,,,,,,,,,,,,,,,,,,,,,,,,,,,,,,,,,,,,,,,,,,,,,,,,,,,,,,,posc_poss,30,15,15,-15,"[5, 2, 1, 0.5]",lin,1,1,8,3,1,2,start,5,15,15,30,303.1078022,303.1147407,303.60334,303.60334,303.6749608,303.6749608,303.6749608,304.0264014,1,,,,,,,,,,,,,,,2418,1,2025-08-16_12h48.08.966,tilt_staircase,2024.2.4,None,2025-08-16 12h48.20.531530 -0700
,,,1,0,1,,,,,,,,,,,,,,,,,,1,0,1,0,304.036128,,,,,,,,,,,,,,,,,,,,,,,,,,,,,,,,,,,,,,,,,,,,,,,,,,,,,,,,,,,,,,,,,,negc_negs,30,-15,15,-15,"[5, 2, 1, 0.5]",lin,1,1,8,0,1,3,start,5,-15,-15,-30,304.0273463,304.036128,304.5199744,304.5199744,304.6036287,304.5931768,304.5931768,304.9455702,0,,,,,,,,,,,,,,,2418,1,2025-08-16_12h48.08.966,tilt_staircase,2024.2.4,None,2025-08-16 12h48.20.531530 -0700
,,,1,0,1,,,,,,,,,,,,,,,,,,1,0,1,0,304.9534666,,,,,,,,,,,,,,,,,,,,,,,,,,,,,,,,,,,,,,,,,,,,,,,,,,,,,,,,,,,,,,,,,,negc_poss,30,-15,15,-15,"[5, 2, 1, 0.5]",lin,1,1,8,2,1,4,start,5,-15,-15,30,304.9465922,304.9534666,305.4463958,305.4463958,305.520505,305.520505,305.520505,305.8718278,0,,,,,,,,,,,,,,,2418,1,2025-08-16_12h48.08.966,tilt_staircase,2024.2.4,None,2025-08-16 12h48.20.531530 -0700
,,,1,0,1,,,,,,,,,,,,,,,,,,1,0,1,0,305.8796002,,,,,,,,,,,,,,,,,,,,,,,,,,,,,,,,,,,,,,,,,,,,,,,,,,,,,,,,,,,,,,,,,,posc_noss,30,15,15,-15,"[5, 2, 1, 0.5]",lin,1,1,8,5,1,5,start,5,15,15,,305.8728074,305.8796002,306.3697135,306.3697135,306.4432999,306.4432999,306.4432999,306.7726071,1,,,,,,,,,,,,,,,2418,1,2025-08-16_12h48.08.966,tilt_staircase,2024.2.4,None,2025-08-16 12h48.20.531530 -0700
,,,1,0,1,,,,,,,,,,,,,,,,,,1,0,1,0,306.7809688,,,,,,,,,,,,,,,,,,,,,,,,,,,,,,,,,,,,,,,,,,,,,,,,,,,,,,,,,,,,,,,,,,posc_negs,30,15,15,-15,"[5, 2, 1, 0.5]",lin,1,1,8,1,2,6,down,5,10,10,-30,306.7741733,306.7809688,307.2695439,307.2695439,307.3432681,307.3432681,307.3432681,307.6883882,1,,,,,,,,,,,,,,,2418,1,2025-08-16_12h48.08.966,tilt_staircase,2024.2.4,None,2025-08-16 12h48.20.531530 -0700
,,,1,0,1,,,,,,,,,,,,,,,,,,1,0,1,0,307.69654,,,,,,,,,,,,,,,,,,,,,,,,,,,,,,,,,,,,,,,,,,,,,,,,,,,,,,,,,,,,,,,,,,negc_poss,30,-15,15,-15,"[5, 2, 1, 0.5]",lin,1,1,8,2,2,7,up,5,-10,-10,30,307.6893919,307.69654,308.1786359,308.1786359,308.2598915,308.2541999,308.2541999,308.604907,0,,,,,,,,,,,,,,,2418,1,2025-08-16_12h48.08.966,tilt_staircase,2024.2.4,None,2025-08-16 12h48.20.531530 -0700
,,,1,0,1,,,,,,,,,,,,,,,,,,1,0,1,0,308.6115901,,,,,,,,,,,,,,,,,,,,,,,,,,,,,,,,,,,,,,,,,,,,,,,,,,,,,,,,,,,,,,,,,,negc_negs,30,-15,15,-15,"[5, 2, 1, 0.5]",lin,1,1,8,0,2,8,up,5,-10,-10,-30,308.605712,308.6115901,309.0957196,309.0957196,309.1766954,309.1766954,309.1766954,309.4729097,1,,,,,,,,,,,,,,,2418,1,2025-08-16_12h48.08.966,tilt_staircase,2024.2.4,None,2025-08-16 12h48.20.531530 -0700
,,,1,0,1,,,,,,,,,,,,,,,,,,1,0,1,0,309.4811201,,,,,,,,,,,,,,,,,,,,,,,,,,,,,,,,,,,,,,,,,,,,,,,,,,,,,,,,,,,,,,,,,,posc_noss,30,15,15,-15,"[5, 2, 1, 0.5]",lin,1,1,8,5,2,9,down,5,10,10,,309.4746406,309.4811201,309.9702967,309.9702967,310.0434549,310.0434549,310.0434549,310.4888448,1,,,,,,,,,,,,,,,2418,1,2025-08-16_12h48.08.966,tilt_staircase,2024.2.4,None,2025-08-16 12h48.20.531530 -0700
,,,1,0,1,,,,,,,,,,,,,,,,,,1,0,1,0,310.4966322,,,,,,,,,,,,,,,,,,,,,,,,,,,,,,,,,,,,,,,,,,,,,,,,,,,,,,,,,,,,,,,,,,negc_noss,30,-15,15,-15,"[5, 2, 1, 0.5]",lin,1,1,8,4,2,10,up,5,-10,-10,,310.4898187,310.4966322,310.9873696,310.9873696,311.0583654,311.0583654,311.0583654,311.378047,0,,,,,,,,,,,,,,,2418,1,2025-08-16_12h48.08.966,tilt_staircase,2024.2.4,None,2025-08-16 12h48.20.531530 -0700
,,,1,0,1,,,,,,,,,,,,,,,,,,1,0,1,0,311.3861466,,,,,,,,,,,,,,,,,,,,,,,,,,,,,,,,,,,,,,,,,,,,,,,,,,,,,,,,,,,,,,,,,,posc_poss,30,15,15,-15,"[5, 2, 1, 0.5]",lin,1,1,8,3,2,11,down,5,10,10,30,311.3790252,311.3861466,311.8697751,311.8697751,311.9536993,311.9436049,311.9436049,312.2292255,1,,,,,,,,,,,,,,,2418,1,2025-08-16_12h48.08.966,tilt_staircase,2024.2.4,None,2025-08-16 12h48.20.531530 -0700
,,,1,0,1,,,,,,,,,,,,,,,,,,1,0,1,0,312.2396522,,,,,,,,,,,,,,,,,,,,,,,,,,,,,,,,,,,,,,,,,,,,,,,,,,,,,,,,,,,,,,,,,,negc_negs,30,-15,15,-15,"[5, 2, 1, 0.5]",lin,1,1,8,0,3,12,down,2,-12,-12,-30,312.2308605,312.2396522,312.727568,312.727568,312.8036839,312.8036839,312.8036839,313.1477832,0,,,,,,,,,,,,,,,2418,1,2025-08-16_12h48.08.966,tilt_staircase,2024.2.4,None,2025-08-16 12h48.20.531530 -0700
,,,1,0,1,,,,,,,,,,,,,,,,,,1,0,1,0,313.1532457,,,,,,,,,,,,,,,,,,,,,,,,,,,,,,,,,,,,,,,,,,,,,,,,,,,,,,,,,,,,,,,,,,posc_poss,30,15,15,-15,"[5, 2, 1, 0.5]",lin,1,1,8,3,3,13,down,5,5,5,30,313.1488246,313.1532457,313.6425433,313.6425433,313.7264099,313.7204853,313.7204853,314.1394566,1,,,,,,,,,,,,,,,2418,1,2025-08-16_12h48.08.966,tilt_staircase,2024.2.4,None,2025-08-16 12h48.20.531530 -0700
,,,1,0,1,,,,,,,,,,,,,,,,,,1,0,1,0,314.1472992,,,,,,,,,,,,,,,,,,,,,,,,,,,,,,,,,,,,,,,,,,,,,,,,,,,,,,,,,,,,,,,,,,posc_noss,30,15,15,-15,"[5, 2, 1, 0.5]",lin,1,1,8,5,3,14,down,5,5,5,,314.1405013,314.1472992,314.6373511,314.6373511,314.7099497,314.7099497,314.7099497,315.0563669,1,,,,,,,,,,,,,,,2418,1,2025-08-16_12h48.08.966,tilt_staircase,2024.2.4,None,2025-08-16 12h48.20.531530 -0700
,,,1,0,1,,,,,,,,,,,,,,,,,,1,0,1,0,315.0652837,,,,,,,,,,,,,,,,,,,,,,,,,,,,,,,,,,,,,,,,,,,,,,,,,,,,,,,,,,,,,,,,,,negc_poss,30,-15,15,-15,"[5, 2, 1, 0.5]",lin,1,1,8,2,3,15,up,5,-5,-5,30,315.0581709,315.0652837,315.5528457,315.5528457,315.6261369,315.6261369,315.6261369,315.971475,0,,,,,,,,,,,,,,,2418,1,2025-08-16_12h48.08.966,tilt_staircase,2024.2.4,None,2025-08-16 12h48.20.531530 -0700
,,,1,0,1,,,,,,,,,,,,,,,,,,1,0,1,0,315.9789379,,,,,,,,,,,,,,,,,,,,,,,,,,,,,,,,,,,,,,,,,,,,,,,,,,,,,,,,,,,,,,,,,,posc_negs,30,15,15,-15,"[5, 2, 1, 0.5]",lin,1,1,8,1,3,16,down,5,5,5,-30,315.9728047,315.9789379,316.4705843,316.4705843,316.5434843,316.5434843,316.5434843,316.8445625,1,,,,,,,,,,,,,,,2418,1,2025-08-16_12h48.08.966,tilt_staircase,2024.2.4,None,2025-08-16 12h48.20.531530 -0700
,,,1,0,1,,,,,,,,,,,,,,,,,,1,0,1,0,316.8528511,,,,,,,,,,,,,,,,,,,,,,,,,,,,,,,,,,,,,,,,,,,,,,,,,,,,,,,,,,,,,,,,,,negc_noss,30,-15,15,-15,"[5, 2, 1, 0.5]",lin,1,1,8,4,3,17,up,5,-5,-5,,316.8456145,316.8528511,317.3457001,317.3457001,317.4205629,317.4205629,317.4205629,317.7453867,0,,,,,,,,,,,,,,,2418,1,2025-08-16_12h48.08.966,tilt_staircase,2024.2.4,None,2025-08-16 12h48.20.531530 -0700
,,,1,0,1,,,,,,,,,,,,,,,,,,1,0,1,0,317.7537378,,,,,,,,,,,,,,,,,,,,,,,,,,,,,,,,,,,,,,,,,,,,,,,,,,,,,,,,,,,,,,,,,,posc_poss,30,15,15,-15,"[5, 2, 1, 0.5]",lin,1,1,8,3,4,18,down,5,0,0,30,317.7467209,317.7537378,318.246034,318.246034,318.3205184,318.3205184,318.3205184,318.7285175,0,,,,,,,,,,,,,,,2418,1,2025-08-16_12h48.08.966,tilt_staircase,2024.2.4,None,2025-08-16 12h48.20.531530 -0700
,,,1,0,1,,,,,,,,,,,,,,,,,,1,0,1,0,318.7367447,,,,,,,,,,,,,,,,,,,,,,,,,,,,,,,,,,,,,,,,,,,,,,,,,,,,,,,,,,,,,,,,,,posc_noss,30,15,15,-15,"[5, 2, 1, 0.5]",lin,1,1,8,5,4,19,down,5,0,0,,318.7297532,318.7367447,319.2286487,319.2286487,319.3037359,319.3037359,319.3037359,320.0978769,1,,,,,,,,,,,,,,,2418,1,2025-08-16_12h48.08.966,tilt_staircase,2024.2.4,None,2025-08-16 12h48.20.531530 -0700
,,,1,0,1,,,,,,,,,,,,,,,,,,1,0,1,0,320.1034499,,,,,,,,,,,,,,,,,,,,,,,,,,,,,,,,,,,,,,,,,,,,,,,,,,,,,,,,,,,,,,,,,,negc_negs,30,-15,15,-15,"[5, 2, 1, 0.5]",lin,1,1,8,0,4,20,up,1,-11,-11,-30,320.0989212,320.1034499,320.595556,320.595556,320.6768612,320.6710559,320.6710559,321.0536645,0,,,,,,,,,,,,,,,2418,1,2025-08-16_12h48.08.966,tilt_staircase,2024.2.4,None,2025-08-16 12h48.20.531530 -0700
,,,1,0,1,,,,,,,,,,,,,,,,,,1,0,1,0,321.0579568,,,,,,,,,,,,,,,,,,,,,,,,,,,,,,,,,,,,,,,,,,,,,,,,,,,,,,,,,,,,,,,,,,negc_poss,30,-15,15,-15,"[5, 2, 1, 0.5]",lin,1,1,8,2,4,21,up,5,0,0,30,321.054101,321.0579568,321.5431443,321.5431443,321.6257702,321.6193693,321.6193693,322.0448408,0,,,,,,,,,,,,,,,2418,1,2025-08-16_12h48.08.966,tilt_staircase,2024.2.4,None,2025-08-16 12h48.20.531530 -0700
,,,1,0,1,,,,,,,,,,,,,,,,,,1,0,1,0,322.0533689,,,,,,,,,,,,,,,,,,,,,,,,,,,,,,,,,,,,,,,,,,,,,,,,,,,,,,,,,,,,,,,,,,negc_noss,30,-15,15,-15,"[5, 2, 1, 0.5]",lin,1,1,8,4,4,22,up,5,0,0,,322.0459356,322.0533689,322.5449055,322.5449055,322.6203248,322.6203248,322.6203248,322.9777692,1,,,,,,,,,,,,,,,2418,1,2025-08-16_12h48.08.966,tilt_staircase,2024.2.4,None,2025-08-16 12h48.20.531530 -0700
,,,1,0,1,,,,,,,,,,,,,,,,,,1,0,1,0,322.9859433,,,,,,,,,,,,,,,,,,,,,,,,,,,,,,,,,,,,,,,,,,,,,,,,,,,,,,,,,,,,,,,,,,posc_negs,30,15,15,-15,"[5, 2, 1, 0.5]",lin,1,1,8,1,4,23,down,5,0,0,-30,322.9785837,322.9859433,323.4794519,323.4794519,323.5540772,323.5540772,323.5540772,324.0449715,1,,,,,,,,,,,,,,,2418,1,2025-08-16_12h48.08.966,tilt_staircase,2024.2.4,None,2025-08-16 12h48.20.531530 -0700
,,,1,0,1,,,,,,,,,,,,,,,,,,1,0,1,0,324.0528534,,,,,,,,,,,,,,,,,,,,,,,,,,,,,,,,,,,,,,,,,,,,,,,,,,,,,,,,,,,,,,,,,,negc_poss,30,-15,15,-15,"[5, 2, 1, 0.5]",lin,1,1,8,2,5,24,up,5,5,5,30,324.0460108,324.0528534,324.5441695,324.5441695,324.6205449,324.6205449,324.6205449,325.0617535,1,,,,,,,,,,,,,,,2418,1,2025-08-16_12h48.08.966,tilt_staircase,2024.2.4,None,2025-08-16 12h48.20.531530 -0700
,,,1,0,1,,,,,,,,,,,,,,,,,,1,0,1,0,325.0696213,,,,,,,,,,,,,,,,,,,,,,,,,,,,,,,,,,,,,,,,,,,,,,,,,,,,,,,,,,,,,,,,,,posc_noss,30,15,15,-15,"[5, 2, 1, 0.5]",lin,1,1,8,5,5,25,down,5,-5,-5,,325.0627688,325.0696213,325.5589301,325.5589301,325.6367491,325.6367491,325.6367491,325.9917663,0,,,,,,,,,,,,,,,2418,1,2025-08-16_12h48.08.966,tilt_staircase,2024.2.4,None,2025-08-16 12h48.20.531530 -0700
,,,1,0,1,,,,,,,,,,,,,,,,,,1,0,1,0,326.004036,,,,,,,,,,,,,,,,,,,,,,,,,,,,,,,,,,,,,,,,,,,,,,,,,,,,,,,,,,,,,,,,,,posc_poss,30,15,15,-15,"[5, 2, 1, 0.5]",lin,1,1,8,3,5,26,up,2,2,2,30,325.9927368,326.004036,326.4860478,326.4860478,326.5702967,326.5575967,326.5575967,327.0393203,1,,,,,,,,,,,,,,,2418,1,2025-08-16_12h48.08.966,tilt_staircase,2024.2.4,None,2025-08-16 12h48.20.531530 -0700
,,,1,0,1,,,,,,,,,,,,,,,,,,1,0,1,0,327.047255,,,,,,,,,,,,,,,,,,,,,,,,,,,,,,,,,,,,,,,,,,,,,,,,,,,,,,,,,,,,,,,,,,negc_noss,30,-15,15,-15,"[5, 2, 1, 0.5]",lin,1,1,8,4,5,27,down,2,-2,-2,,327.0405408,327.047255,327.5371934,327.5371934,327.6075221,327.6075221,327.6075221,327.925486,0,,,,,,,,,,,,,,,2418,1,2025-08-16_12h48.08.966,tilt_staircase,2024.2.4,None,2025-08-16 12h48.20.531530 -0700
,,,1,0,1,,,,,,,,,,,,,,,,,,1,0,1,0,327.9369811,,,,,,,,,,,,,,,,,,,,,,,,,,,,,,,,,,,,,,,,,,,,,,,,,,,,,,,,,,,,,,,,,,posc_negs,30,15,15,-15,"[5, 2, 1, 0.5]",lin,1,1,8,1,5,28,down,5,-5,-5,-30,327.9264483,327.9369811,328.41935,328.41935,328.5038115,328.4906496,328.4906496,328.9216288,0,,,,,,,,,,,,,,,2418,1,2025-08-16_12h48.08.966,tilt_staircase,2024.2.4,None,2025-08-16 12h48.20.531530 -0700
,,,1,0,1,,,,,,,,,,,,,,,,,,1,0,1,0,328.9291742,,,,,,,,,,,,,,,,,,,,,,,,,,,,,,,,,,,,,,,,,,,,,,,,,,,,,,,,,,,,,,,,,,negc_negs,30,-15,15,-15,"[5, 2, 1, 0.5]",lin,1,1,8,0,5,29,up,1,-10,-10,-30,328.9226443,328.9291742,329.419496,329.419496,329.4930487,329.4930487,329.4930487,329.855703,0,,,,,,,,,,,,,,,2418,1,2025-08-16_12h48.08.966,tilt_staircase,2024.2.4,None,2025-08-16 12h48.20.531530 -0700
,,,1,0,1,,,,,,,,,,,,,,,,,,1,0,1,0,329.863245,,,,,,,,,,,,,,,,,,,,,,,,,,,,,,,,,,,,,,,,,,,,,,,,,,,,,,,,,,,,,,,,,,posc_noss,30,15,15,-15,"[5, 2, 1, 0.5]",lin,1,1,8,5,6,30,up,2,-3,-3,,329.8567398,329.863245,330.3538887,330.3538887,330.4275006,330.4275006,330.4275006,330.7815685,0,,,,,,,,,,,,,,,2418,1,2025-08-16_12h48.08.966,tilt_staircase,2024.2.4,None,2025-08-16 12h48.20.531530 -0700
,,,1,0,1,,,,,,,,,,,,,,,,,,1,0,1,0,330.78715,,,,,,,,,,,,,,,,,,,,,,,,,,,,,,,,,,,,,,,,,,,,,,,,,,,,,,,,,,,,,,,,,,posc_poss,30,15,15,-15,"[5, 2, 1, 0.5]",lin,1,1,8,3,6,31,down,1,1,1,30,330.7826806,330.78715,331.27823,331.27823,331.3597472,331.354074,331.354074,332.5110466,1,,,,,,,,,,,,,,,2418,1,2025-08-16_12h48.08.966,tilt_staircase,2024.2.4,None,2025-08-16 12h48.20.531530 -0700
,,,1,0,1,,,,,,,,,,,,,,,,,,1,0,1,0,332.5192797,,,,,,,,,,,,,,,,,,,,,,,,,,,,,,,,,,,,,,,,,,,,,,,,,,,,,,,,,,,,,,,,,,posc_negs,30,15,15,-15,"[5, 2, 1, 0.5]",lin,1,1,8,1,6,32,up,2,-3,-3,-30,332.5120915,332.5192797,333.0103141,333.0103141,333.0871304,333.0871304,333.0871304,334.4722935,0,,,,,,,,,,,,,,,2418,1,2025-08-16_12h48.08.966,tilt_staircase,2024.2.4,None,2025-08-16 12h48.20.531530 -0700
,,,1,0,1,,,,,,,,,,,,,,,,,,1,0,1,0,334.4801889,,,,,,,,,,,,,,,,,,,,,,,,,,,,,,,,,,,,,,,,,,,,,,,,,,,,,,,,,,,,,,,,,,negc_negs,30,-15,15,-15,"[5, 2, 1, 0.5]",lin,1,1,8,0,6,33,up,1,-9,-9,-30,334.4735598,334.4801889,334.9705566,334.9705566,335.0435593,335.0435593,335.0435593,335.3780514,0,,,,,,,,,,,,,,,2418,1,2025-08-16_12h48.08.966,tilt_staircase,2024.2.4,None,2025-08-16 12h48.20.531530 -0700
,,,1,0,1,,,,,,,,,,,,,,,,,,1,0,1,0,335.385841,,,,,,,,,,,,,,,,,,,,,,,,,,,,,,,,,,,,,,,,,,,,,,,,,,,,,,,,,,,,,,,,,,negc_noss,30,-15,15,-15,"[5, 2, 1, 0.5]",lin,1,1,8,4,6,34,up,1,-1,-1,,335.3790046,335.385841,335.8698705,335.8698705,335.9537155,335.9435509,335.9435509,336.2973913,0,,,,,,,,,,,,,,,2418,1,2025-08-16_12h48.08.966,tilt_staircase,2024.2.4,None,2025-08-16 12h48.20.531530 -0700
,,,1,0,1,,,,,,,,,,,,,,,,,,1,0,1,0,336.3027092,,,,,,,,,,,,,,,,,,,,,,,,,,,,,,,,,,,,,,,,,,,,,,,,,,,,,,,,,,,,,,,,,,negc_poss,30,-15,15,-15,"[5, 2, 1, 0.5]",lin,1,1,8,2,6,35,down,2,3,3,30,336.2983476,336.3027092,336.795489,336.795489,336.8703334,336.8703334,336.8703334,338.5953701,0,,,,,,,,,,,,,,,2418,1,2025-08-16_12h48.08.966,tilt_staircase,2024.2.4,None,2025-08-16 12h48.20.531530 -0700
,,,1,0,1,,,,,,,,,,,,,,,,,,1,0,1,0,338.6039685,,,,,,,,,,,,,,,,,,,,,,,,,,,,,,,,,,,,,,,,,,,,,,,,,,,,,,,,,,,,,,,,,,posc_negs,30,15,15,-15,"[5, 2, 1, 0.5]",lin,1,1,8,1,7,36,up,2,-1,-1,-30,338.5967728,338.6039685,339.0956274,339.0956274,339.1708263,339.1708263,339.1708263,339.5444831,0,,,,,,,,,,,,,,,2418,1,2025-08-16_12h48.08.966,tilt_staircase,2024.2.4,None,2025-08-16 12h48.20.531530 -0700
,,,1,0,1,,,,,,,,,,,,,,,,,,1,0,1,0,339.5525625,,,,,,,,,,,,,,,,,,,,,,,,,,,,,,,,,,,,,,,,,,,,,,,,,,,,,,,,,,,,,,,,,,posc_poss,30,15,15,-15,"[5, 2, 1, 0.5]",lin,1,1,8,3,7,37,down,1,0,0,30,339.5452997,339.5525625,340.0451311,340.0451311,340.1204401,340.1204401,340.1204401,340.5126278,0,,,,,,,,,,,,,,,2418,1,2025-08-16_12h48.08.966,tilt_staircase,2024.2.4,None,2025-08-16 12h48.20.531530 -0700
,,,1,0,1,,,,,,,,,,,,,,,,,,1,0,1,0,340.5202041,,,,,,,,,,,,,,,,,,,,,,,,,,,,,,,,,,,,,,,,,,,,,,,,,,,,,,,,,,,,,,,,,,posc_noss,30,15,15,-15,"[5, 2, 1, 0.5]",lin,1,1,8,5,7,38,up,2,-1,-1,,340.5136701,340.5202041,341.010262,341.010262,341.0874816,341.0874816,341.0874816,341.5547312,0,,,,,,,,,,,,,,,2418,1,2025-08-16_12h48.08.966,tilt_staircase,2024.2.4,None,2025-08-16 12h48.20.531530 -0700
,,,1,0,1,,,,,,,,,,,,,,,,,,1,0,1,0,341.5621144,,,,,,,,,,,,,,,,,,,,,,,,,,,,,,,,,,,,,,,,,,,,,,,,,,,,,,,,,,,,,,,,,,negc_negs,30,-15,15,-15,"[5, 2, 1, 0.5]",lin,1,1,8,0,7,39,up,1,-8,-8,-30,341.5556871,341.5621144,342.0450765,342.0450765,342.1262738,342.1203753,342.1203753,342.6555453,0,,,,,,,,,,,,,,,2418,1,2025-08-16_12h48.08.966,tilt_staircase,2024.2.4,None,2025-08-16 12h48.20.531530 -0700
,,,1,0,1,,,,,,,,,,,,,,,,,,1,0,1,0,342.6636163,,,,,,,,,,,,,,,,,,,,,,,,,,,,,,,,,,,,,,,,,,,,,,,,,,,,,,,,,,,,,,,,,,negc_poss,30,-15,15,-15,"[5, 2, 1, 0.5]",lin,1,1,8,2,7,40,up,1,4,4,30,342.6566623,342.6636163,343.1536673,343.1536673,343.2265195,343.2265195,343.2265195,343.642426,1,,,,,,,,,,,,,,,2418,1,2025-08-16_12h48.08.966,tilt_staircase,2024.2.4,None,2025-08-16 12h48.20.531530 -0700
,,,1,0,1,,,,,,,,,,,,,,,,,,1,0,1,0,343.6540937,,,,,,,,,,,,,,,,,,,,,,,,,,,,,,,,,,,,,,,,,,,,,,,,,,,,,,,,,,,,,,,,,,negc_noss,30,-15,15,-15,"[5, 2, 1, 0.5]",lin,1,1,8,4,7,41,up,1,0,0,,343.6434328,343.6540937,344.1359685,344.1359685,344.2207335,344.2095522,344.2095522,344.7113238,0,,,,,,,,,,,,,,,2418,1,2025-08-16_12h48.08.966,tilt_staircase,2024.2.4,None,2025-08-16 12h48.20.531530 -0700
,,,1,0,1,,,,,,,,,,,,,,,,,,1,0,1,0,344.7194678,,,,,,,,,,,,,,,,,,,,,,,,,,,,,,,,,,,,,,,,,,,,,,,,,,,,,,,,,,,,,,,,,,negc_noss,30,-15,15,-15,"[5, 2, 1, 0.5]",lin,1,1,8,4,8,42,up,1,1,1,,344.7123563,344.7194678,345.2124962,345.2124962,345.2875594,345.2875594,345.2875594,347.0723672,0,,,,,,,,,,,,,,,2418,1,2025-08-16_12h48.08.966,tilt_staircase,2024.2.4,None,2025-08-16 12h48.20.531530 -0700
,,,1,0,1,,,,,,,,,,,,,,,,,,1,0,1,0,347.081289,,,,,,,,,,,,,,,,,,,,,,,,,,,,,,,,,,,,,,,,,,,,,,,,,,,,,,,,,,,,,,,,,,posc_negs,30,15,15,-15,"[5, 2, 1, 0.5]",lin,1,1,8,1,8,43,up,2,1,1,-30,347.0741906,347.081289,347.5702255,347.5702255,347.6403196,347.6403196,347.6403196,348.0475421,1,,,,,,,,,,,,,,,2418,1,2025-08-16_12h48.08.966,tilt_staircase,2024.2.4,None,2025-08-16 12h48.20.531530 -0700
,,,1,0,1,,,,,,,,,,,,,,,,,,1,0,1,0,348.0529535,,,,,,,,,,,,,,,,,,,,,,,,,,,,,,,,,,,,,,,,,,,,,,,,,,,,,,,,,,,,,,,,,,posc_noss,30,15,15,-15,"[5, 2, 1, 0.5]",lin,1,1,8,5,8,44,up,2,1,1,,348.0485608,348.0529535,348.5436261,348.5436261,348.6265815,348.6203972,348.6203972,349.0390371,1,,,,,,,,,,,,,,,2418,1,2025-08-16_12h48.08.966,tilt_staircase,2024.2.4,None,2025-08-16 12h48.20.531530 -0700
,,,1,0,1,,,,,,,,,,,,,,,,,,1,0,1,0,349.0470977,,,,,,,,,,,,,,,,,,,,,,,,,,,,,,,,,,,,,,,,,,,,,,,,,,,,,,,,,,,,,,,,,,negc_negs,30,-15,15,-15,"[5, 2, 1, 0.5]",lin,1,1,8,0,8,45,up,1,-7,-7,-30,349.0403424,349.0470977,349.5370205,349.5370205,349.6074753,349.6074753,349.6074753,350.0725824,0,,,,,,,,,,,,,,,2418,1,2025-08-16_12h48.08.966,tilt_staircase,2024.2.4,None,2025-08-16 12h48.20.531530 -0700
,,,1,0,1,,,,,,,,,,,,,,,,,,1,0,1,0,350.0806651,,,,,,,,,,,,,,,,,,,,,,,,,,,,,,,,,,,,,,,,,,,,,,,,,,,,,,,,,,,,,,,,,,negc_poss,30,-15,15,-15,"[5, 2, 1, 0.5]",lin,1,1,8,2,8,46,down,0.5,3.5,3.5,30,350.0739403,350.0806651,350.5703323,350.5703323,350.6404774,350.6404774,350.6404774,351.0969197,1,,,,,,,,,,,,,,,2418,1,2025-08-16_12h48.08.966,tilt_staircase,2024.2.4,None,2025-08-16 12h48.20.531530 -0700
,,,1,0,1,,,,,,,,,,,,,,,,,,1,0,1,0,351.1026159,,,,,,,,,,,,,,,,,,,,,,,,,,,,,,,,,,,,,,,,,,,,,,,,,,,,,,,,,,,,,,,,,,posc_poss,30,15,15,-15,"[5, 2, 1, 0.5]",lin,1,1,8,3,8,47,up,0.5,0.5,0.5,30,351.097873,351.1026159,351.5943069,351.5943069,351.6770388,351.6707425,351.6707425,352.0948264,0,,,,,,,,,,,,,,,2418,1,2025-08-16_12h48.08.966,tilt_staircase,2024.2.4,None,2025-08-16 12h48.20.531530 -0700
,,,1,0,1,,,,,,,,,,,,,,,,,,1,0,1,0,352.1029109,,,,,,,,,,,,,,,,,,,,,,,,,,,,,,,,,,,,,,,,,,,,,,,,,,,,,,,,,,,,,,,,,,posc_noss,30,15,15,-15,"[5, 2, 1, 0.5]",lin,1,1,8,5,9,48,down,1,0,0,,352.0958691,352.1029109,352.5941654,352.5941654,352.670714,352.670714,352.670714,353.5217319,0,,,,,,,,,,,,,,,2418,1,2025-08-16_12h48.08.966,tilt_staircase,2024.2.4,None,2025-08-16 12h48.20.531530 -0700
,,,1,0,1,,,,,,,,,,,,,,,,,,1,0,1,0,353.5292739,,,,,,,,,,,,,,,,,,,,,,,,,,,,,,,,,,,,,,,,,,,,,,,,,,,,,,,,,,,,,,,,,,posc_poss,30,15,15,-15,"[5, 2, 1, 0.5]",lin,1,1,8,3,9,49,up,0.5,1,1,30,353.5227392,353.5292739,354.0116863,354.0116863,354.0933847,354.087346,354.087346,354.6082611,0,,,,,,,,,,,,,,,2418,1,2025-08-16_12h48.08.966,tilt_staircase,2024.2.4,None,2025-08-16 12h48.20.531530 -0700
,,,1,0,1,,,,,,,,,,,,,,,,,,1,0,1,0,354.620333,,,,,,,,,,,,,,,,,,,,,,,,,,,,,,,,,,,,,,,,,,,,,,,,,,,,,,,,,,,,,,,,,,posc_negs,30,15,15,-15,"[5, 2, 1, 0.5]",lin,1,1,8,1,9,50,down,1,0,0,-30,354.6092277,354.620333,355.1031767,355.1031767,355.187062,355.1762866,355.1762866,355.5775387,1,,,,,,,,,,,,,,,2418,1,2025-08-16_12h48.08.966,tilt_staircase,2024.2.4,None,2025-08-16 12h48.20.531530 -0700
,,,1,0,1,,,,,,,,,,,,,,,,,,1,0,1,0,355.5858535,,,,,,,,,,,,,,,,,,,,,,,,,,,,,,,,,,,,,,,,,,,,,,,,,,,,,,,,,,,,,,,,,,negc_noss,30,-15,15,-15,"[5, 2, 1, 0.5]",lin,1,1,8,4,9,51,up,1,2,2,,355.578557,355.5858535,356.0780592,356.0780592,356.1537195,356.1537195,356.1537195,356.5719974,1,,,,,,,,,,,,,,,2418,1,2025-08-16_12h48.08.966,tilt_staircase,2024.2.4,None,2025-08-16 12h48.20.531530 -0700
,,,1,0,1,,,,,,,,,,,,,,,,,,1,0,1,0,356.5801384,,,,,,,,,,,,,,,,,,,,,,,,,,,,,,,,,,,,,,,,,,,,,,,,,,,,,,,,,,,,,,,,,,negc_poss,30,-15,15,-15,"[5, 2, 1, 0.5]",lin,1,1,8,2,9,52,down,0.5,3,3,30,356.5732403,356.5801384,357.0702678,357.0702678,357.1432943,357.1432943,357.1432943,357.6551048,1,,,,,,,,,,,,,,,2418,1,2025-08-16_12h48.08.966,tilt_staircase,2024.2.4,None,2025-08-16 12h48.20.531530 -0700
,,,1,0,1,,,,,,,,,,,,,,,,,,1,0,1,0,357.662364,,,,,,,,,,,,,,,,,,,,,,,,,,,,,,,,,,,,,,,,,,,,,,,,,,,,,,,,,,,,,,,,,,negc_negs,30,-15,15,-15,"[5, 2, 1, 0.5]",lin,1,1,8,0,9,53,up,1,-6,-6,-30,357.6560756,357.662364,358.1533843,358.1533843,358.2267265,358.2267265,358.2267265,358.6895229,0,,,,,,,,,,,,,,,2418,1,2025-08-16_12h48.08.966,tilt_staircase,2024.2.4,None,2025-08-16 12h48.20.531530 -0700
,,,1,0,1,,,,,,,,,,,,,,,,,,1,0,1,0,358.6975158,,,,,,,,,,,,,,,,,,,,,,,,,,,,,,,,,,,,,,,,,,,,,,,,,,,,,,,,,,,,,,,,,,posc_negs,30,15,15,-15,"[5, 2, 1, 0.5]",lin,1,1,8,1,10,54,down,1,-1,-1,-30,358.6908651,358.6975158,359.185938,359.185938,359.2605156,359.2605156,359.2605156,361.9888248,0,,,,,,,,,,,,,,,2418,1,2025-08-16_12h48.08.966,tilt_staircase,2024.2.4,None,2025-08-16 12h48.20.531530 -0700
,,,1,0,1,,,,,,,,,,,,,,,,,,1,0,1,0,361.996593,,,,,,,,,,,,,,,,,,,,,,,,,,,,,,,,,,,,,,,,,,,,,,,,,,,,,,,,,,,,,,,,,,negc_negs,30,-15,15,-15,"[5, 2, 1, 0.5]",lin,1,1,8,0,10,55,up,1,-5,-5,-30,361.9898792,361.996593,362.485986,362.485986,362.5580143,362.5580143,362.5580143,363.0805076,0,,,,,,,,,,,,,,,2418,1,2025-08-16_12h48.08.966,tilt_staircase,2024.2.4,None,2025-08-16 12h48.20.531530 -0700
,,,1,0,1,,,,,,,,,,,,,,,,,,1,0,1,0,363.08616,,,,,,,,,,,,,,,,,,,,,,,,,,,,,,,,,,,,,,,,,,,,,,,,,,,,,,,,,,,,,,,,,,posc_poss,30,15,15,-15,"[5, 2, 1, 0.5]",lin,1,1,8,3,10,56,up,0.5,1.5,1.5,30,363.0815352,363.08616,363.5780391,363.5780391,363.6591045,363.6539834,363.6539834,364.0767331,0,,,,,,,,,,,,,,,2418,1,2025-08-16_12h48.08.966,tilt_staircase,2024.2.4,None,2025-08-16 12h48.20.531530 -0700
,,,1,0,1,,,,,,,,,,,,,,,,,,1,0,1,0,364.0859029,,,,,,,,,,,,,,,,,,,,,,,,,,,,,,,,,,,,,,,,,,,,,,,,,,,,,,,,,,,,,,,,,,posc_noss,30,15,15,-15,"[5, 2, 1, 0.5]",lin,1,1,8,5,10,57,up,0.5,0.5,0.5,,364.0776779,364.0859029,364.5763006,364.5763006,364.6538292,364.6538292,364.6538292,365.0728387,1,,,,,,,,,,,,,,,2418,1,2025-08-16_12h48.08.966,tilt_staircase,2024.2.4,None,2025-08-16 12h48.20.531530 -0700
,,,1,0,1,,,,,,,,,,,,,,,,,,1,0,1,0,365.0816019,,,,,,,,,,,,,,,,,,,,,,,,,,,,,,,,,,,,,,,,,,,,,,,,,,,,,,,,,,,,,,,,,,negc_noss,30,-15,15,-15,"[5, 2, 1, 0.5]",lin,1,1,8,4,10,58,down,0.5,1.5,1.5,,365.0746354,365.0816019,365.5699194,365.5699194,365.6401185,365.6401185,365.6401185,366.0053779,1,,,,,,,,,,,,,,,2418,1,2025-08-16_12h48.08.966,tilt_staircase,2024.2.4,None,2025-08-16 12h48.20.531530 -0700
,,,1,0,1,,,,,,,,,,,,,,,,,,1,0,1,0,366.0132234,,,,,,,,,,,,,,,,,,,,,,,,,,,,,,,,,,,,,,,,,,,,,,,,,,,,,,,,,,,,,,,,,,negc_poss,30,-15,15,-15,"[5, 2, 1, 0.5]",lin,1,1,8,2,10,59,down,0.5,2.5,2.5,30,366.0063577,366.0132234,366.5037401,366.5037401,366.5742712,366.5742712,366.5742712,367.1279873,1,,,,,,,,,,,,,,,2418,1,2025-08-16_12h48.08.966,tilt_staircase,2024.2.4,None,2025-08-16 12h48.20.531530 -0700
,,,1,0,1,,,,,,,,,,,,,,,,,,1,0,1,0,367.1359591,,,,,,,,,,,,,,,,,,,,,,,,,,,,,,,,,,,,,,,,,,,,,,,,,,,,,,,,,,,,,,,,,,negc_poss,30,-15,15,-15,"[5, 2, 1, 0.5]",lin,1,1,8,2,11,60,down,0.5,2,2,30,367.1289786,367.1359591,367.6267945,367.6267945,367.7036873,367.7036873,367.7036873,368.5966865,1,,,,,,,,,,,,,,,2418,1,2025-08-16_12h48.08.966,tilt_staircase,2024.2.4,None,2025-08-16 12h48.20.531530 -0700
,,,1,0,1,,,,,,,,,,,,,,,,,,1,0,1,0,368.6203638,,,,,,,,,,,,,,,,,,,,,,,,,,,,,,,,,,,,,,,,,,,,,,,,,,,,,,,,,,,,,,,,,,negc_noss,30,-15,15,-15,"[5, 2, 1, 0.5]",lin,1,1,8,4,11,61,down,0.5,1,1,,368.5977004,368.6203638,369.0933076,369.0933076,369.1752736,369.1698908,369.1698908,369.5758454,1,,,,,,,,,,,,,,,2418,1,2025-08-16_12h48.08.966,tilt_staircase,2024.2.4,None,2025-08-16 12h48.20.531530 -0700
,,,1,0,1,,,,,,,,,,,,,,,,,,1,0,1,0,369.5866902,,,,,,,,,,,,,,,,,,,,,,,,,,,,,,,,,,,,,,,,,,,,,,,,,,,,,,,,,,,,,,,,,,posc_poss,30,15,15,-15,"[5, 2, 1, 0.5]",lin,1,1,8,3,11,62,up,0.5,2,2,30,369.5766958,369.5866902,370.0779395,370.0779395,370.1541097,370.1541097,370.1541097,370.5716057,1,,,,,,,,,,,,,,,2418,1,2025-08-16_12h48.08.966,tilt_staircase,2024.2.4,None,2025-08-16 12h48.20.531530 -0700
,,,1,0,1,,,,,,,,,,,,,,,,,,1,0,1,0,370.579296,,,,,,,,,,,,,,,,,,,,,,,,,,,,,,,,,,,,,,,,,,,,,,,,,,,,,,,,,,,,,,,,,,negc_negs,30,-15,15,-15,"[5, 2, 1, 0.5]",lin,1,1,8,0,11,63,up,1,-4,-4,-30,370.5725879,370.579296,371.0621045,371.0621045,371.1434705,371.137415,371.137415,371.595482,0,,,,,,,,,,,,,,,2418,1,2025-08-16_12h48.08.966,tilt_staircase,2024.2.4,None,2025-08-16 12h48.20.531530 -0700
,,,1,0,1,,,,,,,,,,,,,,,,,,1,0,1,0,371.6024904,,,,,,,,,,,,,,,,,,,,,,,,,,,,,,,,,,,,,,,,,,,,,,,,,,,,,,,,,,,,,,,,,,posc_noss,30,15,15,-15,"[5, 2, 1, 0.5]",lin,1,1,8,5,11,64,down,0.5,0,0,,371.5962964,371.6024904,372.0951989,372.0951989,372.1710614,372.1710614,372.1710614,372.9719443,0,,,,,,,,,,,,,,,2418,1,2025-08-16_12h48.08.966,tilt_staircase,2024.2.4,None,2025-08-16 12h48.20.531530 -0700
,,,1,0,1,,,,,,,,,,,,,,,,,,1,0,1,0,372.9766922,,,,,,,,,,,,,,,,,,,,,,,,,,,,,,,,,,,,,,,,,,,,,,,,,,,,,,,,,,,,,,,,,,posc_negs,30,15,15,-15,"[5, 2, 1, 0.5]",lin,1,1,8,1,11,65,up,0.5,-0.5,-0.5,-30,372.9730622,372.9766922,373.4703745,373.4703745,373.5438035,373.5438035,373.5438035,374.0421017,1,,,,,,,,,,,,,,,2418,1,2025-08-16_12h48.08.966,tilt_staircase,2024.2.4,None,2025-08-16 12h48.20.531530 -0700
,,,1,0,1,,,,,,,,,,,,,,,,,,1,0,1,0,374.0535165,,,,,,,,,,,,,,,,,,,,,,,,,,,,,,,,,,,,,,,,,,,,,,,,,,,,,,,,,,,,,,,,,,posc_negs,30,15,15,-15,"[5, 2, 1, 0.5]",lin,1,1,8,1,12,66,down,0.5,-1,-1,-30,374.0431219,374.0535165,374.5436377,374.5436377,374.6202851,374.6202851,374.6202851,375.1113306,1,,,,,,,,,,,,,,,2418,1,2025-08-16_12h48.08.966,tilt_staircase,2024.2.4,None,2025-08-16 12h48.20.531530 -0700
,,,1,0,1,,,,,,,,,,,,,,,,,,1,0,1,0,375.1193017,,,,,,,,,,,,,,,,,,,,,,,,,,,,,,,,,,,,,,,,,,,,,,,,,,,,,,,,,,,,,,,,,,posc_noss,30,15,15,-15,"[5, 2, 1, 0.5]",lin,1,1,8,5,12,67,up,0.5,0.5,0.5,,375.1123677,375.1193017,375.6089814,375.6089814,375.6875079,375.6875079,375.6875079,376.1613652,1,,,,,,,,,,,,,,,2418,1,2025-08-16_12h48.08.966,tilt_staircase,2024.2.4,None,2025-08-16 12h48.20.531530 -0700
,,,1,0,1,,,,,,,,,,,,,,,,,,1,0,1,0,376.1692081,,,,,,,,,,,,,,,,,,,,,,,,,,,,,,,,,,,,,,,,,,,,,,,,,,,,,,,,,,,,,,,,,,negc_negs,30,-15,15,-15,"[5, 2, 1, 0.5]",lin,1,1,8,0,12,68,up,1,-3,-3,-30,376.1623588,376.1692081,376.6593415,376.6593415,376.737355,376.737355,376.737355,377.5809659,0,,,,,,,,,,,,,,,2418,1,2025-08-16_12h48.08.966,tilt_staircase,2024.2.4,None,2025-08-16 12h48.20.531530 -0700
,,,1,0,1,,,,,,,,,,,,,,,,,,1,0,1,0,377.5864863,,,,,,,,,,,,,,,,,,,,,,,,,,,,,,,,,,,,,,,,,,,,,,,,,,,,,,,,,,,,,,,,,,posc_poss,30,15,15,-15,"[5, 2, 1, 0.5]",lin,1,1,8,3,12,69,down,0.5,1.5,1.5,30,377.581979,377.5864863,378.0785833,378.0785833,378.1601381,378.1541161,378.1541161,379.8057338,0,,,,,,,,,,,,,,,2418,1,2025-08-16_12h48.08.966,tilt_staircase,2024.2.4,None,2025-08-16 12h48.20.531530 -0700
,,,1,0,1,,,,,,,,,,,,,,,,,,1,0,1,0,379.8140083,,,,,,,,,,,,,,,,,,,,,,,,,,,,,,,,,,,,,,,,,,,,,,,,,,,,,,,,,,,,,,,,,,negc_poss,30,-15,15,-15,"[5, 2, 1, 0.5]",lin,1,1,8,2,12,70,down,0.5,1.5,1.5,30,379.8069034,379.8140083,380.3025781,380.3025781,380.3767305,380.3767305,380.3767305,381.4448682,1,,,,,,,,,,,,,,,2418,1,2025-08-16_12h48.08.966,tilt_staircase,2024.2.4,None,2025-08-16 12h48.20.531530 -0700
,,,1,0,1,,,,,,,,,,,,,,,,,,1,0,1,0,381.4527705,,,,,,,,,,,,,,,,,,,,,,,,,,,,,,,,,,,,,,,,,,,,,,,,,,,,,,,,,,,,,,,,,,negc_noss,30,-15,15,-15,"[5, 2, 1, 0.5]",lin,1,1,8,4,12,71,down,0.5,0.5,0.5,,381.4460692,381.4527705,381.9444061,381.9444061,382.020606,382.020606,382.020606,382.5956492,1,,,,,,,,,,,,,,,2418,1,2025-08-16_12h48.08.966,tilt_staircase,2024.2.4,None,2025-08-16 12h48.20.531530 -0700
,,,1,0,1,,,,,,,,,,,,,,,,,,1,0,1,0,382.6034183,,,,,,,,,,,,,,,,,,,,,,,,,,,,,,,,,,,,,,,,,,,,,,,,,,,,,,,,,,,,,,,,,,posc_noss,30,15,15,-15,"[5, 2, 1, 0.5]",lin,1,1,8,5,13,72,down,0.5,0,0,,382.5966293,382.6034183,383.0929835,383.0929835,383.1698955,383.1698955,383.1698955,384.4725067,1,,,,,,,,,,,,,,,2418,1,2025-08-16_12h48.08.966,tilt_staircase,2024.2.4,None,2025-08-16 12h48.20.531530 -0700
,,,1,0,1,,,,,,,,,,,,,,,,,,1,0,1,0,384.4777396,,,,,,,,,,,,,,,,,,,,,,,,,,,,,,,,,,,,,,,,,,,,,,,,,,,,,,,,,,,,,,,,,,posc_poss,30,15,15,-15,"[5, 2, 1, 0.5]",lin,1,1,8,3,13,73,up,0.5,2,2,30,384.4739328,384.4777396,384.9701131,384.9701131,385.0429791,385.0429791,385.0429791,386.8882012,0,,,,,,,,,,,,,,,2418,1,2025-08-16_12h48.08.966,tilt_staircase,2024.2.4,None,2025-08-16 12h48.20.531530 -0700
,,,1,0,1,,,,,,,,,,,,,,,,,,1,0,1,0,386.8953182,,,,,,,,,,,,,,,,,,,,,,,,,,,,,,,,,,,,,,,,,,,,,,,,,,,,,,,,,,,,,,,,,,negc_negs,30,-15,15,-15,"[5, 2, 1, 0.5]",lin,1,1,8,0,13,74,up,1,-2,-2,-30,386.8892136,386.8953182,387.3792429,387.3792429,387.4590635,387.4536419,387.4536419,388.1780232,1,,,,,,,,,,,,,,,2418,1,2025-08-16_12h48.08.966,tilt_staircase,2024.2.4,None,2025-08-16 12h48.20.531530 -0700
,,,1,0,1,,,,,,,,,,,,,,,,,,1,0,1,0,388.1860298,,,,,,,,,,,,,,,,,,,,,,,,,,,,,,,,,,,,,,,,,,,,,,,,,,,,,,,,,,,,,,,,,,negc_noss,30,-15,15,-15,"[5, 2, 1, 0.5]",lin,1,1,8,4,13,75,down,0.5,0,0,,388.1790915,388.1860298,388.6782297,388.6782297,388.7539852,388.7539852,388.7539852,389.2060856,1,,,,,,,,,,,,,,,2418,1,2025-08-16_12h48.08.966,tilt_staircase,2024.2.4,None,2025-08-16 12h48.20.531530 -0700
,,,1,0,1,,,,,,,,,,,,,,,,,,1,0,1,0,389.2147951,,,,,,,,,,,,,,,,,,,,,,,,,,,,,,,,,,,,,,,,,,,,,,,,,,,,,,,,,,,,,,,,,,negc_poss,30,-15,15,-15,"[5, 2, 1, 0.5]",lin,1,1,8,2,13,76,down,0.5,1,1,30,389.2078546,389.2147951,389.7041181,389.7041181,389.776352,389.776352,389.776352,390.2395702,0,,,,,,,,,,,,,,,2418,1,2025-08-16_12h48.08.966,tilt_staircase,2024.2.4,None,2025-08-16 12h48.20.531530 -0700
,,,1,0,1,,,,,,,,,,,,,,,,,,1,0,1,0,390.2473891,,,,,,,,,,,,,,,,,,,,,,,,,,,,,,,,,,,,,,,,,,,,,,,,,,,,,,,,,,,,,,,,,,posc_negs,30,15,15,-15,"[5, 2, 1, 0.5]",lin,1,1,8,1,13,77,down,0.5,-1.5,-1.5,-30,390.2406946,390.2473891,390.7374022,390.7374022,390.8097867,390.8097867,390.8097867,391.3952791,0,,,,,,,,,,,,,,,2418,1,2025-08-16_12h48.08.966,tilt_staircase,2024.2.4,None,2025-08-16 12h48.20.531530 -0700
,,,1,0,1,,,,,,,,,,,,,,,,,,1,0,1,0,391.4031855,,,,,,,,,,,,,,,,,,,,,,,,,,,,,,,,,,,,,,,,,,,,,,,,,,,,,,,,,,,,,,,,,,negc_noss,30,-15,15,-15,"[5, 2, 1, 0.5]",lin,1,1,8,4,14,78,down,0.5,-0.5,-0.5,,391.3962696,391.4031855,391.8945693,391.8945693,391.9701867,391.9701867,391.9701867,392.488373,0,,,,,,,,,,,,,,,2418,1,2025-08-16_12h48.08.966,tilt_staircase,2024.2.4,None,2025-08-16 12h48.20.531530 -0700
,,,1,0,1,,,,,,,,,,,,,,,,,,1,0,1,0,392.4961223,,,,,,,,,,,,,,,,,,,,,,,,,,,,,,,,,,,,,,,,,,,,,,,,,,,,,,,,,,,,,,,,,,negc_negs,30,-15,15,-15,"[5, 2, 1, 0.5]",lin,1,1,8,0,14,79,down,0.5,-2.5,-2.5,-30,392.4893573,392.4961223,392.9871855,392.9871855,393.0598611,393.0598611,393.0598611,393.559228,0,,,,,,,,,,,,,,,2418,1,2025-08-16_12h48.08.966,tilt_staircase,2024.2.4,None,2025-08-16 12h48.20.531530 -0700
,,,1,0,1,,,,,,,,,,,,,,,,,,1,0,1,0,393.569484,,,,,,,,,,,,,,,,,,,,,,,,,,,,,,,,,,,,,,,,,,,,,,,,,,,,,,,,,,,,,,,,,,negc_poss,30,-15,15,-15,"[5, 2, 1, 0.5]",lin,1,1,8,2,14,80,up,0.5,1.5,1.5,30,393.5601929,393.569484,394.0537217,394.0537217,394.1373377,394.1256107,394.1256107,395.0049912,1,,,,,,,,,,,,,,,2418,1,2025-08-16_12h48.08.966,tilt_staircase,2024.2.4,None,2025-08-16 12h48.20.531530 -0700
,,,1,0,1,,,,,,,,,,,,,,,,,,1,0,1,0,395.0128149,,,,,,,,,,,,,,,,,,,,,,,,,,,,,,,,,,,,,,,,,,,,,,,,,,,,,,,,,,,,,,,,,,posc_noss,30,15,15,-15,"[5, 2, 1, 0.5]",lin,1,1,8,5,14,81,down,0.5,-0.5,-0.5,,395.005996,395.0128149,395.5036526,395.5036526,395.575928,395.575928,395.575928,396.1725061,0,,,,,,,,,,,,,,,2418,1,2025-08-16_12h48.08.966,tilt_staircase,2024.2.4,None,2025-08-16 12h48.20.531530 -0700
,,,1,0,1,,,,,,,,,,,,,,,,,,1,0,1,0,396.180483,,,,,,,,,,,,,,,,,,,,,,,,,,,,,,,,,,,,,,,,,,,,,,,,,,,,,,,,,,,,,,,,,,posc_poss,30,15,15,-15,"[5, 2, 1, 0.5]",lin,1,1,8,3,14,82,up,0.5,2.5,2.5,30,396.1737929,396.180483,396.6703353,396.6703353,396.7434117,396.7434117,396.7434117,397.27272,1,,,,,,,,,,,,,,,2418,1,2025-08-16_12h48.08.966,tilt_staircase,2024.2.4,None,2025-08-16 12h48.20.531530 -0700
,,,1,0,1,,,,,,,,,,,,,,,,,,1,0,1,0,397.2809022,,,,,,,,,,,,,,,,,,,,,,,,,,,,,,,,,,,,,,,,,,,,,,,,,,,,,,,,,,,,,,,,,,posc_negs,30,15,15,-15,"[5, 2, 1, 0.5]",lin,1,1,8,1,14,83,up,0.5,-1,-1,-30,397.2740256,397.2809022,397.7695635,397.7695635,397.840866,397.840866,397.840866,398.4557472,1,,,,,,,,,,,,,,,2418,1,2025-08-16_12h48.08.966,tilt_staircase,2024.2.4,None,2025-08-16 12h48.20.531530 -0700
,,,1,0,1,,,,,,,,,,,,,,,,,,1,0,1,0,398.4642189,,,,,,,,,,,,,,,,,,,,,,,,,,,,,,,,,,,,,,,,,,,,,,,,,,,,,,,,,,,,,,,,,,posc_poss,30,15,15,-15,"[5, 2, 1, 0.5]",lin,1,1,8,3,15,84,down,0.5,2,2,30,398.4570248,398.4642189,398.9530072,398.9530072,399.0248025,399.0248025,399.0248025,399.6592463,1,,,,,,,,,,,,,,,2418,1,2025-08-16_12h48.08.966,tilt_staircase,2024.2.4,None,2025-08-16 12h48.20.531530 -0700
