center,surround,correct,thisN,thisTrialN,thisRepN,key_resp_3.keys,key_resp_3.corr,key_resp_3.rt,key_resp_3.duration,opacity,key_resp_4.keys,key_resp_4.corr,key_resp_4.rt,key_resp_4.duration,practice_no_time.thisRepN,practice_no_time.thisTrialN,practice_no_time.thisN,practice_no_time.thisIndex,practice_timed.thisRepN,practice_timed.thisTrialN,practice_timed.thisN,practice_timed.thisIndex,blocks.thisRepN,blocks.thisTrialN,blocks.thisN,blocks.thisIndex,thisRow.t,notes,instr.started,text_5.started,key_resp_2.started,instr.stopped,key_resp_2.keys,key_resp_2.rt,key_resp_2.duration,instr2.started,text_6.started,key_resp_6.started,instr2.stopped,key_resp_6.keys,key_resp_6.rt,key_resp_6.duration,test.started,surround_practice_3.started,center_practice_3.started,key_resp_7.started,test.stopped,key_resp_7.keys,key_resp_7.rt,key_resp_7.duration,practice_trial.started,key_resp_3.started,surround_practice.started,center_practice.started,surround_practice.stopped,center_practice.stopped,text_11.started,practice_trial.stopped,practice_no_time.key_resp_3.keys,practice_no_time.key_resp_3.corr,practice_no_time.key_resp_3.rt,practice_no_time.key_resp_3.duration,practice_feedback.started,text_7.started,practice_feedback.stopped,text_7.stopped,instr3.started,text_8.started,key_resp_5.started,instr3.stopped,key_resp_5.keys,key_resp_5.rt,key_resp_5.duration,practice_trial_timed.started,key_resp_4.started,surround_practice_2.started,center_practice_2.started,surround_practice_2.stopped,center_practice_2.stopped,text_12.started,practice_trial_timed.stopped,practice_timed.key_resp_4.keys,practice_timed.key_resp_4.corr,practice_timed.key_resp_4.rt,practice_timed.key_resp_4.duration,start_instr.started,text_13.started,key_resp_8.started,start_instr.stopped,key_resp_8.keys,key_resp_8.rt,key_resp_8.duration,trials.label,trials.nReps,trials.startVal,trials.maxVal,trials.minVal,trials.stepSizes,trials.stepType,trials.nUp,trials.nDown,trials.nReversals,trials.thisIndex,trials.thisRepN,trials.thisN,trials.direction,trials.stepSize,trials.intensity,center_angle,surround_angle,trial.started,resp.started,surround_grating.started,center_grating.started,surround_grating.stopped,center_grating.stopped,text_3.started,trial.stopped,trials.response,break_2.started,text_14.started,key_resp_9.started,break_2.stopped,blocks.key_resp_9.keys,blocks.key_resp_9.rt,blocks.key_resp_9.duration,end.started,text_4.started,key_resp.started,end.stopped,key_resp.keys,key_resp.rt,key_resp.duration,participant,session,date,expName,psychopyVersion,frameRate,expStart,
,,,,,,,,,,,,,,,,,,,,,,,,,,,,,0.03580841585062444,0.04841858288273215,0.04841858288273215,228.1012486249674,space,228.04745074990205,None,,,,,,,,,,,,,,,,,,,,,,,,,,,,,,,,,,,,,,,,,,,,,,,,,,,,,,,,,,,,,,,,,,,,,,,,,,,,,,,,,,,,,,,,,,,,,,,,,,,daniel,001,2025-08-18_18h22.17.637,tilt_staircase,2024.2.4,None,2025-08-18 18h22.38.209282 -0400,
,,,,,,,,,,,,,,,,,,,,,,,,,,,,,,,,,,,,228.10144404089078,228.1243267909158,228.1243267909158,236.43908829102293,space,8.312592792091891,None,,,,,,,,,,,,,,,,,,,,,,,,,,,,,,,,,,,,,,,,,,,,,,,,,,,,,,,,,,,,,,,,,,,,,,,,,,,,,,,,,,,,,,,,,,,,daniel,001,2025-08-18_18h22.17.637,tilt_staircase,2024.2.4,None,2025-08-18 18h22.38.209282 -0400,
,,,,,,,,,,,,,,,,,,,,,,,,,,,,,,,,,,,,,,,,,,,236.44058525003493,236.46698608295992,236.46698608295992,236.46698608295992,239.6345954160206,space,3.1629172498360276,None,,,,,,,,,,,,,,,,,,,,,,,,,,,,,,,,,,,,,,,,,,,,,,,,,,,,,,,,,,,,,,,,,,,,,,,,,,,,,,,,,,,,daniel,001,2025-08-18_18h22.17.637,tilt_staircase,2024.2.4,None,2025-08-18 18h22.38.209282 -0400,
30,0,right,0,0,0,right,1,6.216321917017922,None,,,,,,0,0,0,0,,,,,,,,,239.67582445801236,,,,,,,,,,,,,,,,,,,,,,,,239.67017887486145,239.67582445801236,240.13591162487864,240.13591162487864,241.13279045792297,241.13279045792297,241.13279045792297,245.90098262485117,right,1,6.216321917017922,None,245.90740545792505,246.09266887488775,247.40347441588528,,,,,,,,,,,,,,,,,,,,,,,,,,,,,,,,,,,,,,,,,,,,,,,,,,,,,,,,,,,,,,,,,,,,,daniel,001,2025-08-18_18h22.17.637,tilt_staircase,2024.2.4,None,2025-08-18 18h22.38.209282 -0400,
-30,0,left,1,1,0,left,1,1.1736241248436272,None,,,,,,0,1,1,1,,,,,,,,,247.4163892499637,,,,,,,,,,,,,,,,,,,,,,,,247.40437925001606,247.4163892499637,247.89898354094476,247.89898354094476,,,,248.6016860830132,left,1,1.1736241248436272,None,248.60181799996644,248.61282291589305,250.10069004097022,250.1074352080468,,,,,,,,,,,,,,,,,,,,,,,,,,,,,,,,,,,,,,,,,,,,,,,,,,,,,,,,,,,,,,,,,,,,daniel,001,2025-08-18_18h22.17.637,tilt_staircase,2024.2.4,None,2025-08-18 18h22.38.209282 -0400,
30,60,right,2,2,0,right,1,1.3040546660777181,None,,,,,,0,2,2,2,,,,,,,,,250.1074352080468,,,,,,,,,,,,,,,,,,,,,,,,250.10193654103205,250.1074352080468,250.59855395788327,250.59855395788327,,,,251.4187901248224,right,1,1.3040546660777181,None,251.41892324993387,251.42656458285637,252.915836625034,252.92000158294104,,,,,,,,,,,,,,,,,,,,,,,,,,,,,,,,,,,,,,,,,,,,,,,,,,,,,,,,,,,,,,,,,,,,daniel,001,2025-08-18_18h22.17.637,tilt_staircase,2024.2.4,None,2025-08-18 18h22.38.209282 -0400,
-30,-60,left,3,3,0,left,1,1.1281971670687199,None,,,,,,0,3,3,3,,,,,,,,,252.92000158294104,,,,,,,,,,,,,,,,,,,,,,,,252.91695183282718,252.92000158294104,253.415434791008,253.415434791008,,,,254.05181799991988,left,1,1.1281971670687199,None,254.051938790828,254.05959362490103,255.55048091593198,255.5597792910412,,,,,,,,,,,,,,,,,,,,,,,,,,,,,,,,,,,,,,,,,,,,,,,,,,,,,,,,,,,,,,,,,,,,daniel,001,2025-08-18_18h22.17.637,tilt_staircase,2024.2.4,None,2025-08-18 18h22.38.209282 -0400,
,,,,,,,,,,,,,,,,,,,,,,,,,,,,,,,,,,,,,,,,,,,,,,,,,,,,,,,,,,,,,,,,,,,255.55068270792253,255.5597792910412,255.5597792910412,261.6848649578169,space,6.115378999849781,None,,,,,,,,,,,,,,,,,,,,,,,,,,,,,,,,,,,,,,,,,,,,,,,,,,,,,,,,,,,,,daniel,001,2025-08-18_18h22.17.637,tilt_staircase,2024.2.4,None,2025-08-18 18h22.38.209282 -0400,
-30,-60,left,0,0,0,,,,,100,left,1,1.0474875001236796,None,,,,,0,0,0,0,,,,,261.71317570796236,,,,,,,,,,,,,,,,,,,,,,,,,,,,,,,,,,,,262.76792291598395,262.77522608288564,264.26697145798244,264.27250854088925,,,,,,,,261.7049595830031,261.71317570796236,262.18664379091933,262.18664379091933,262.2570361660328,262.2570361660328,262.2570361660328,262.7678057909943,left,1,1.0474875001236796,None,,,,,,,,,,,,,,,,,,,,,,,,,,,,,,,,,,,,,,,,,,,,,,,,,daniel,001,2025-08-18_18h22.17.637,tilt_staircase,2024.2.4,None,2025-08-18 18h22.38.209282 -0400,
-30,0,left,1,1,0,,,,,100,left,1,1.000313499942422,None,,,,,0,1,1,1,,,,,264.27250854088925,,,,,,,,,,,,,,,,,,,,,,,,,,,,,,,,,,,,265.28490362502635,265.2922123328317,266.78376962500624,266.7885248749517,,,,,,,,264.2675718329847,264.27250854088925,264.7661607079208,264.7661607079208,264.83945408300497,264.83945408300497,264.83945408300497,265.2847873750143,left,1,1.000313499942422,None,,,,,,,,,,,,,,,,,,,,,,,,,,,,,,,,,,,,,,,,,,,,,,,,,daniel,001,2025-08-18_18h22.17.637,tilt_staircase,2024.2.4,None,2025-08-18 18h22.38.209282 -0400,
30,60,right,2,2,0,,,,,100,right,1,1.0037883329205215,None,,,,,0,2,2,2,,,,,266.7885248749517,,,,,,,,,,,,,,,,,,,,,,,,,,,,,,,,,,,,267.8018522078637,267.8094394998625,269.3005655000452,269.3060046660248,,,,,,,,266.78427387494594,266.7885248749517,267.2828442079481,267.2828442079481,267.3548598329071,267.3548598329071,267.3548598329071,267.8017053329386,right,1,1.0037883329205215,None,,,,,,,,,,,,,,,,,,,,,,,,,,,,,,,,,,,,,,,,,,,,,,,,,daniel,001,2025-08-18_18h22.17.637,tilt_staircase,2024.2.4,None,2025-08-18 18h22.38.209282 -0400,
30,0,right,3,3,0,,,,,100,right,1,0.9620492090471089,None,,,,,0,3,3,3,,,,,269.3060046660248,,,,,,,,,,,,,,,,,,,,,,,,,,,,,,,,,,,,270.2730235408526,270.28167558298446,271.76730837486684,271.77351333294064,,,,,,,,269.30112433293834,269.3060046660248,269.79923920799047,269.79923920799047,269.8726910408586,269.8726910408586,269.8726910408586,270.27290420792997,right,1,0.9620492090471089,None,,,,,,,,,,,,,,,,,,,,,,,,,,,,,,,,,,,,,,,,,,,,,,,,,daniel,001,2025-08-18_18h22.17.637,tilt_staircase,2024.2.4,None,2025-08-18 18h22.38.209282 -0400,
-30,69,left,4,4,0,,,,,0,left,1,0.9704065420664847,None,,,,,0,4,4,4,,,,,271.77351333294064,,,,,,,,,,,,,,,,,,,,,,,,,,,,,,,,,,,,272.75093995803036,272.75779183302075,274.25053970795125,274.2556129579898,,,,,,,,271.7681070829276,271.77351333294064,272.26507904101163,272.26507904101163,272.33756350004114,272.33756350004114,272.34957612492144,272.750825624913,left,1,0.9704065420664847,None,,,,,,,,,,,,,,,,,,,,,,,,,,,,,,,,,,,,,,,,,,,,,,,,,daniel,001,2025-08-18_18h22.17.637,tilt_staircase,2024.2.4,None,2025-08-18 18h22.38.209282 -0400,
30,69,right,5,5,0,,,,,0,right,1,0.9636130419094115,None,,,,,0,5,5,5,,,,,274.2556129579898,,,,,,,,,,,,,,,,,,,,,,,,,,,,,,,,,,,,275.2228184158448,275.231729749823,276.7170411248226,276.72535270801745,,,,,,,,274.25110700004734,274.2556129579898,274.74957620794885,274.74957620794885,274.82166458293796,274.82166458293796,274.82166458293796,275.22270449995995,right,1,0.9636130419094115,None,,,,,,,,,,,,,,,,,,,,,,,,,,,,,,,,,,,,,,,,,,,,,,,,,daniel,001,2025-08-18_18h22.17.637,tilt_staircase,2024.2.4,None,2025-08-18 18h22.38.209282 -0400,
,,,,,,,,,,,,,,,,,,,,,,,,,,,,,,,,,,,,,,,,,,,,,,,,,,,,,,,,,,,,,,,,,,,,,,,,,,,,,,,,,,,,,,276.71722533297725,276.72535270801745,276.72535270801745,279.47501054103486,space,2.74342287494801,None,,,,,,,,,,,,,,,,,,,,,,,,,,,,,,,,,,,,,,,,,,daniel,001,2025-08-18_18h22.17.637,tilt_staircase,2024.2.4,None,2025-08-18 18h22.38.209282 -0400,
,,,0,0,0,,,,,,,,,,,,,,,,,,0,0,0,0,279.6246566248592,,,,,,,,,,,,,,,,,,,,,,,,,,,,,,,,,,,,,,,,,,,,,,,,,,,,,,,,,,,,,,,,,,negc_poss,30,-15,15,-15,"[5, 2, 1, 0.5]",lin,1,1,8,2,1,0,start,5,-15,-15,30,279.61893499991857,279.6246566248592,279.9769590829965,279.9769590829965,280.0561906248331,280.0561906248331,280.0561906248331,280.8235484578181,0,,,,,,,,,,,,,,,daniel,001,2025-08-18_18h22.17.637,tilt_staircase,2024.2.4,None,2025-08-18 18h22.38.209282 -0400,
,,,0,0,0,,,,,,,,,,,,,,,,,,0,0,0,0,280.8317634998821,,,,,,,,,,,,,,,,,,,,,,,,,,,,,,,,,,,,,,,,,,,,,,,,,,,,,,,,,,,,,,,,,,posc_poss,30,15,15,-15,"[5, 2, 1, 0.5]",lin,1,1,8,3,1,1,start,5,15,15,30,280.8246105830185,280.8317634998821,281.32457804097794,281.32457804097794,281.3994012498297,281.3994012498297,281.3994012498297,281.92177291586995,1,,,,,,,,,,,,,,,daniel,001,2025-08-18_18h22.17.637,tilt_staircase,2024.2.4,None,2025-08-18 18h22.38.209282 -0400,
,,,0,0,0,,,,,,,,,,,,,,,,,,0,0,0,0,281.93192933290266,,,,,,,,,,,,,,,,,,,,,,,,,,,,,,,,,,,,,,,,,,,,,,,,,,,,,,,,,,,,,,,,,,posc_negs,30,15,15,-15,"[5, 2, 1, 0.5]",lin,1,1,8,1,1,2,start,5,15,15,-30,281.92302099987864,281.93192933290266,282.41613170783967,282.41613170783967,282.4881587908603,282.4881587908603,282.49943216587417,283.04031079099514,1,,,,,,,,,,,,,,,daniel,001,2025-08-18_18h22.17.637,tilt_staircase,2024.2.4,None,2025-08-18 18h22.38.209282 -0400,
,,,0,0,0,,,,,,,,,,,,,,,,,,0,0,0,0,283.0483099159319,,,,,,,,,,,,,,,,,,,,,,,,,,,,,,,,,,,,,,,,,,,,,,,,,,,,,,,,,,,,,,,,,,negc_noss,30,-15,15,-15,"[5, 2, 1, 0.5]",lin,1,1,8,4,1,3,start,5,-15,-15,,283.0413394998759,283.0483099159319,283.5414422499016,283.5414422499016,283.6163805408869,283.6163805408869,283.6163805408869,284.0774152500089,0,,,,,,,,,,,,,,,daniel,001,2025-08-18_18h22.17.637,tilt_staircase,2024.2.4,None,2025-08-18 18h22.38.209282 -0400,
,,,0,0,0,,,,,,,,,,,,,,,,,,0,0,0,0,284.0829612908419,,,,,,,,,,,,,,,,,,,,,,,,,,,,,,,,,,,,,,,,,,,,,,,,,,,,,,,,,,,,,,,,,,negc_negs,30,-15,15,-15,"[5, 2, 1, 0.5]",lin,1,1,8,0,1,4,start,5,-15,-15,-30,284.0784486660268,284.0829612908419,284.5742834159173,284.5742834159173,284.6563223749399,284.6563223749399,284.6563223749399,285.1343857499305,0,,,,,,,,,,,,,,,daniel,001,2025-08-18_18h22.17.637,tilt_staircase,2024.2.4,None,2025-08-18 18h22.38.209282 -0400,
,,,0,0,0,,,,,,,,,,,,,,,,,,0,0,0,0,285.14272174984217,,,,,,,,,,,,,,,,,,,,,,,,,,,,,,,,,,,,,,,,,,,,,,,,,,,,,,,,,,,,,,,,,,posc_noss,30,15,15,-15,"[5, 2, 1, 0.5]",lin,1,1,8,5,1,5,start,5,15,15,,285.13542720791884,285.14272174984217,285.6324884160422,285.6324884160422,285.70552562503144,285.70552562503144,285.70552562503144,286.13879704102874,1,,,,,,,,,,,,,,,daniel,001,2025-08-18_18h22.17.637,tilt_staircase,2024.2.4,None,2025-08-18 18h22.38.209282 -0400,
,,,0,0,0,,,,,,,,,,,,,,,,,,0,0,0,0,286.1484634578228,,,,,,,,,,,,,,,,,,,,,,,,,,,,,,,,,,,,,,,,,,,,,,,,,,,,,,,,,,,,,,,,,,negc_noss,30,-15,15,-15,"[5, 2, 1, 0.5]",lin,1,1,8,4,2,6,up,5,-10,-10,,286.1399788749404,286.1484634578228,286.6411430828739,286.6411430828739,286.7150916659739,286.7150916659739,286.7150916659739,287.11816112487577,0,,,,,,,,,,,,,,,daniel,001,2025-08-18_18h22.17.637,tilt_staircase,2024.2.4,None,2025-08-18 18h22.38.209282 -0400,
,,,0,0,0,,,,,,,,,,,,,,,,,,0,0,0,0,287.12655429099686,,,,,,,,,,,,,,,,,,,,,,,,,,,,,,,,,,,,,,,,,,,,,,,,,,,,,,,,,,,,,,,,,,negc_negs,30,-15,15,-15,"[5, 2, 1, 0.5]",lin,1,1,8,0,2,7,up,5,-10,-10,-30,287.1197331659496,287.12655429099686,287.61553445784375,287.61553445784375,287.689910082845,287.689910082845,287.689910082845,288.24076204095036,0,,,,,,,,,,,,,,,daniel,001,2025-08-18_18h22.17.637,tilt_staircase,2024.2.4,None,2025-08-18 18h22.38.209282 -0400,
,,,0,0,0,,,,,,,,,,,,,,,,,,0,0,0,0,288.24943954101764,,,,,,,,,,,,,,,,,,,,,,,,,,,,,,,,,,,,,,,,,,,,,,,,,,,,,,,,,,,,,,,,,,posc_noss,30,15,15,-15,"[5, 2, 1, 0.5]",lin,1,1,8,5,2,8,down,5,10,10,,288.2419613748789,288.24943954101764,288.7399645410478,288.7399645410478,288.81656720791943,288.81656720791943,288.81656720791943,289.28480549994856,1,,,,,,,,,,,,,,,daniel,001,2025-08-18_18h22.17.637,tilt_staircase,2024.2.4,None,2025-08-18 18h22.38.209282 -0400,
,,,0,0,0,,,,,,,,,,,,,,,,,,0,0,0,0,289.29311716603115,,,,,,,,,,,,,,,,,,,,,,,,,,,,,,,,,,,,,,,,,,,,,,,,,,,,,,,,,,,,,,,,,,posc_poss,30,15,15,-15,"[5, 2, 1, 0.5]",lin,1,1,8,3,2,9,down,5,10,10,30,289.2859479158651,289.29311716603115,289.78202983294614,289.78202983294614,289.855312041007,289.855312041007,289.855312041007,290.48379791597836,1,,,,,,,,,,,,,,,daniel,001,2025-08-18_18h22.17.637,tilt_staircase,2024.2.4,None,2025-08-18 18h22.38.209282 -0400,
,,,0,0,0,,,,,,,,,,,,,,,,,,0,0,0,0,290.4923962908797,,,,,,,,,,,,,,,,,,,,,,,,,,,,,,,,,,,,,,,,,,,,,,,,,,,,,,,,,,,,,,,,,,posc_negs,30,15,15,-15,"[5, 2, 1, 0.5]",lin,1,1,8,1,2,10,down,5,10,10,-30,290.4848551249597,290.4923962908797,290.9829702498391,290.9829702498391,291.05388845782727,291.05388845782727,291.05388845782727,291.5719246249646,1,,,,,,,,,,,,,,,daniel,001,2025-08-18_18h22.17.637,tilt_staircase,2024.2.4,None,2025-08-18 18h22.38.209282 -0400,
,,,0,0,0,,,,,,,,,,,,,,,,,,0,0,0,0,291.5817419998348,,,,,,,,,,,,,,,,,,,,,,,,,,,,,,,,,,,,,,,,,,,,,,,,,,,,,,,,,,,,,,,,,,negc_poss,30,-15,15,-15,"[5, 2, 1, 0.5]",lin,1,1,8,2,2,11,up,5,-10,-10,30,291.5730995410122,291.5817419998348,292.0740478329826,292.0740478329826,292.1494017499499,292.1494017499499,292.1494017499499,292.65665037487634,0,,,,,,,,,,,,,,,daniel,001,2025-08-18_18h22.17.637,tilt_staircase,2024.2.4,None,2025-08-18 18h22.38.209282 -0400,
,,,0,0,0,,,,,,,,,,,,,,,,,,0,0,0,0,292.6649120829534,,,,,,,,,,,,,,,,,,,,,,,,,,,,,,,,,,,,,,,,,,,,,,,,,,,,,,,,,,,,,,,,,,posc_negs,30,15,15,-15,"[5, 2, 1, 0.5]",lin,1,1,8,1,3,12,down,5,5,5,-30,292.65777225000784,292.6649120829534,293.15738245798275,293.15738245798275,293.23185691586696,293.23185691586696,293.23185691586696,293.7849834158551,1,,,,,,,,,,,,,,,daniel,001,2025-08-18_18h22.17.637,tilt_staircase,2024.2.4,None,2025-08-18 18h22.38.209282 -0400,
,,,0,0,0,,,,,,,,,,,,,,,,,,0,0,0,0,293.7931354159955,,,,,,,,,,,,,,,,,,,,,,,,,,,,,,,,,,,,,,,,,,,,,,,,,,,,,,,,,,,,,,,,,,negc_negs,30,-15,15,-15,"[5, 2, 1, 0.5]",lin,1,1,8,0,3,13,up,5,-5,-5,-30,293.7860586659517,293.7931354159955,294.28271449985914,294.28271449985914,294.35518858302385,294.35518858302385,294.35518858302385,295.2074553328566,0,,,,,,,,,,,,,,,daniel,001,2025-08-18_18h22.17.637,tilt_staircase,2024.2.4,None,2025-08-18 18h22.38.209282 -0400,
,,,0,0,0,,,,,,,,,,,,,,,,,,0,0,0,0,295.2155855409801,,,,,,,,,,,,,,,,,,,,,,,,,,,,,,,,,,,,,,,,,,,,,,,,,,,,,,,,,,,,,,,,,,negc_noss,30,-15,15,-15,"[5, 2, 1, 0.5]",lin,1,1,8,4,3,14,up,5,-5,-5,,295.20850304095075,295.2155855409801,295.7041287079919,295.7041287079919,295.78224337496795,295.78224337496795,295.78224337496795,296.2890386248473,0,,,,,,,,,,,,,,,daniel,001,2025-08-18_18h22.17.637,tilt_staircase,2024.2.4,None,2025-08-18 18h22.38.209282 -0400,
,,,0,0,0,,,,,,,,,,,,,,,,,,0,0,0,0,296.298292624997,,,,,,,,,,,,,,,,,,,,,,,,,,,,,,,,,,,,,,,,,,,,,,,,,,,,,,,,,,,,,,,,,,negc_poss,30,-15,15,-15,"[5, 2, 1, 0.5]",lin,1,1,8,2,3,15,up,5,-5,-5,30,296.29014304094017,296.298292624997,296.79129966604523,296.79129966604523,296.86613183282316,296.86613183282316,296.86613183282316,297.3728304579854,0,,,,,,,,,,,,,,,daniel,001,2025-08-18_18h22.17.637,tilt_staircase,2024.2.4,None,2025-08-18 18h22.38.209282 -0400,
,,,0,0,0,,,,,,,,,,,,,,,,,,0,0,0,0,297.38163345796056,,,,,,,,,,,,,,,,,,,,,,,,,,,,,,,,,,,,,,,,,,,,,,,,,,,,,,,,,,,,,,,,,,posc_noss,30,15,15,-15,"[5, 2, 1, 0.5]",lin,1,1,8,5,3,16,down,5,5,5,,297.373863582965,297.38163345796056,297.87563999998383,297.87563999998383,297.9493527908344,297.9493527908344,297.9493527908344,298.4383106660098,1,,,,,,,,,,,,,,,daniel,001,2025-08-18_18h22.17.637,tilt_staircase,2024.2.4,None,2025-08-18 18h22.38.209282 -0400,
,,,0,0,0,,,,,,,,,,,,,,,,,,0,0,0,0,298.44836612488143,,,,,,,,,,,,,,,,,,,,,,,,,,,,,,,,,,,,,,,,,,,,,,,,,,,,,,,,,,,,,,,,,,posc_poss,30,15,15,-15,"[5, 2, 1, 0.5]",lin,1,1,8,3,3,17,down,5,5,5,30,298.4392882080283,298.44836612488143,298.9401963748969,298.9401963748969,299.0161112078931,299.0161112078931,299.0161112078931,299.73980433284305,1,,,,,,,,,,,,,,,daniel,001,2025-08-18_18h22.17.637,tilt_staircase,2024.2.4,None,2025-08-18 18h22.38.209282 -0400,
,,,0,0,0,,,,,,,,,,,,,,,,,,0,0,0,0,299.74838754092343,,,,,,,,,,,,,,,,,,,,,,,,,,,,,,,,,,,,,,,,,,,,,,,,,,,,,,,,,,,,,,,,,,posc_noss,30,15,15,-15,"[5, 2, 1, 0.5]",lin,1,1,8,5,4,18,down,5,0,0,,299.7411495000124,299.74838754092343,300.2422114580404,300.2422114580404,300.3160659999121,300.3160659999121,300.3160659999121,301.9677991659846,1,,,,,,,,,,,,,,,daniel,001,2025-08-18_18h22.17.637,tilt_staircase,2024.2.4,None,2025-08-18 18h22.38.209282 -0400,
,,,0,0,0,,,,,,,,,,,,,,,,,,0,0,0,0,301.97575295786373,,,,,,,,,,,,,,,,,,,,,,,,,,,,,,,,,,,,,,,,,,,,,,,,,,,,,,,,,,,,,,,,,,negc_negs,30,-15,15,-15,"[5, 2, 1, 0.5]",lin,1,1,8,0,4,19,up,5,0,0,-30,301.9688015829306,301.97575295786373,302.4653020829428,302.4653020829428,302.5391636248678,302.5391636248678,302.5391636248678,303.08476695790887,1,,,,,,,,,,,,,,,daniel,001,2025-08-18_18h22.17.637,tilt_staircase,2024.2.4,None,2025-08-18 18h22.38.209282 -0400,
,,,0,0,0,,,,,,,,,,,,,,,,,,0,0,0,0,303.09269741596654,,,,,,,,,,,,,,,,,,,,,,,,,,,,,,,,,,,,,,,,,,,,,,,,,,,,,,,,,,,,,,,,,,posc_negs,30,15,15,-15,"[5, 2, 1, 0.5]",lin,1,1,8,1,4,20,down,5,0,0,-30,303.08603245788254,303.09269741596654,303.5826975409873,303.5826975409873,303.65511737484485,303.65511737484485,303.65511737484485,304.2406233330257,1,,,,,,,,,,,,,,,daniel,001,2025-08-18_18h22.17.637,tilt_staircase,2024.2.4,None,2025-08-18 18h22.38.209282 -0400,
,,,0,0,0,,,,,,,,,,,,,,,,,,0,0,0,0,304.2495010830462,,,,,,,,,,,,,,,,,,,,,,,,,,,,,,,,,,,,,,,,,,,,,,,,,,,,,,,,,,,,,,,,,,posc_poss,30,15,15,-15,"[5, 2, 1, 0.5]",lin,1,1,8,3,4,21,down,5,0,0,30,304.2418177910149,304.2495010830462,304.74077233299613,304.74077233299613,304.8163233329542,304.8163233329542,304.8163233329542,305.44020683295093,0,,,,,,,,,,,,,,,daniel,001,2025-08-18_18h22.17.637,tilt_staircase,2024.2.4,None,2025-08-18 18h22.38.209282 -0400,
,,,0,0,0,,,,,,,,,,,,,,,,,,0,0,0,0,305.44897145801224,,,,,,,,,,,,,,,,,,,,,,,,,,,,,,,,,,,,,,,,,,,,,,,,,,,,,,,,,,,,,,,,,,negc_noss,30,-15,15,-15,"[5, 2, 1, 0.5]",lin,1,1,8,4,4,22,up,5,0,0,,305.4412830409128,305.44897145801224,305.9417306659743,305.9417306659743,306.0159788748715,306.0159788748715,306.0159788748715,306.6557267908938,0,,,,,,,,,,,,,,,daniel,001,2025-08-18_18h22.17.637,tilt_staircase,2024.2.4,None,2025-08-18 18h22.38.209282 -0400,
,,,0,0,0,,,,,,,,,,,,,,,,,,0,0,0,0,306.66489566583186,,,,,,,,,,,,,,,,,,,,,,,,,,,,,,,,,,,,,,,,,,,,,,,,,,,,,,,,,,,,,,,,,,negc_poss,30,-15,15,-15,"[5, 2, 1, 0.5]",lin,1,1,8,2,4,23,up,5,0,0,30,306.6562027079053,306.66489566583186,307.15805162489414,307.15805162489414,307.232653999934,307.232653999934,307.232653999934,307.78524783300236,0,,,,,,,,,,,,,,,daniel,001,2025-08-18_18h22.17.637,tilt_staircase,2024.2.4,None,2025-08-18 18h22.38.209282 -0400,
,,,0,0,0,,,,,,,,,,,,,,,,,,0,0,0,0,307.79361608298495,,,,,,,,,,,,,,,,,,,,,,,,,,,,,,,,,,,,,,,,,,,,,,,,,,,,,,,,,,,,,,,,,,negc_poss,30,-15,15,-15,"[5, 2, 1, 0.5]",lin,1,1,8,2,5,24,up,5,5,5,30,307.7867856658995,307.79361608298495,308.2826858749613,308.2826858749613,308.35526745789684,308.35526745789684,308.35526745789684,309.3669584579766,1,,,,,,,,,,,,,,,daniel,001,2025-08-18_18h22.17.637,tilt_staircase,2024.2.4,None,2025-08-18 18h22.38.209282 -0400,
,,,0,0,0,,,,,,,,,,,,,,,,,,0,0,0,0,309.37317529087886,,,,,,,,,,,,,,,,,,,,,,,,,,,,,,,,,,,,,,,,,,,,,,,,,,,,,,,,,,,,,,,,,,negc_negs,30,-15,15,-15,"[5, 2, 1, 0.5]",lin,1,1,8,0,5,25,down,2,-2,-2,-30,309.3675657908898,309.37317529087886,309.8585608329158,309.8585608329158,309.9328401249368,309.9328401249368,309.9389695408754,310.6015277078841,1,,,,,,,,,,,,,,,daniel,001,2025-08-18_18h22.17.637,tilt_staircase,2024.2.4,None,2025-08-18 18h22.38.209282 -0400,
,,,0,0,0,,,,,,,,,,,,,,,,,,0,0,0,0,310.6105174999684,,,,,,,,,,,,,,,,,,,,,,,,,,,,,,,,,,,,,,,,,,,,,,,,,,,,,,,,,,,,,,,,,,posc_negs,30,15,15,-15,"[5, 2, 1, 0.5]",lin,1,1,8,1,5,26,down,5,-5,-5,-30,310.60325249983,310.6105174999684,311.09469499997795,311.09469499997795,311.17242774995975,311.17242774995975,311.17242774995975,311.7516804158222,0,,,,,,,,,,,,,,,daniel,001,2025-08-18_18h22.17.637,tilt_staircase,2024.2.4,None,2025-08-18 18h22.38.209282 -0400,
,,,0,0,0,,,,,,,,,,,,,,,,,,0,0,0,0,311.7606029580347,,,,,,,,,,,,,,,,,,,,,,,,,,,,,,,,,,,,,,,,,,,,,,,,,,,,,,,,,,,,,,,,,,posc_noss,30,15,15,-15,"[5, 2, 1, 0.5]",lin,1,1,8,5,5,27,down,5,-5,-5,,311.7531243748963,311.7606029580347,312.24914266588166,312.24914266588166,312.32059512496926,312.32059512496926,312.32059512496926,312.7992968750186,0,,,,,,,,,,,,,,,daniel,001,2025-08-18_18h22.17.637,tilt_staircase,2024.2.4,None,2025-08-18 18h22.38.209282 -0400,
,,,0,0,0,,,,,,,,,,,,,,,,,,0,0,0,0,312.80394066590816,,,,,,,,,,,,,,,,,,,,,,,,,,,,,,,,,,,,,,,,,,,,,,,,,,,,,,,,,,,,,,,,,,posc_poss,30,15,15,-15,"[5, 2, 1, 0.5]",lin,1,1,8,3,5,28,up,2,2,2,30,312.7998365829699,312.80394066590816,313.28843849990517,313.28843849990517,313.36515133292414,313.36515133292414,313.3698464999907,313.90027333283797,0,,,,,,,,,,,,,,,daniel,001,2025-08-18_18h22.17.637,tilt_staircase,2024.2.4,None,2025-08-18 18h22.38.209282 -0400,
,,,0,0,0,,,,,,,,,,,,,,,,,,0,0,0,0,313.9073806658853,,,,,,,,,,,,,,,,,,,,,,,,,,,,,,,,,,,,,,,,,,,,,,,,,,,,,,,,,,,,,,,,,,negc_noss,30,-15,15,-15,"[5, 2, 1, 0.5]",lin,1,1,8,4,5,29,up,5,5,5,,313.9014062078204,313.9073806658853,314.39930566586554,314.39930566586554,314.47241654084064,314.47241654084064,314.47241654084064,314.95533291599713,1,,,,,,,,,,,,,,,daniel,001,2025-08-18_18h22.17.637,tilt_staircase,2024.2.4,None,2025-08-18 18h22.38.209282 -0400,
,,,0,0,0,,,,,,,,,,,,,,,,,,0,0,0,0,314.96482770796865,,,,,,,,,,,,,,,,,,,,,,,,,,,,,,,,,,,,,,,,,,,,,,,,,,,,,,,,,,,,,,,,,,negc_noss,30,-15,15,-15,"[5, 2, 1, 0.5]",lin,1,1,8,4,6,30,down,2,3,3,,314.9566767909564,314.96482770796865,315.4576845408883,315.4576845408883,315.5327569998335,315.5327569998335,315.5327569998335,316.0238625409547,1,,,,,,,,,,,,,,,daniel,001,2025-08-18_18h22.17.637,tilt_staircase,2024.2.4,None,2025-08-18 18h22.38.209282 -0400,
,,,0,0,0,,,,,,,,,,,,,,,,,,0,0,0,0,316.0323634578381,,,,,,,,,,,,,,,,,,,,,,,,,,,,,,,,,,,,,,,,,,,,,,,,,,,,,,,,,,,,,,,,,,negc_poss,30,-15,15,-15,"[5, 2, 1, 0.5]",lin,1,1,8,2,6,31,down,2,3,3,30,316.02499229088426,316.0323634578381,316.5244827908464,316.5244827908464,316.59931662492454,316.59931662492454,316.59931662492454,317.38402483286336,1,,,,,,,,,,,,,,,daniel,001,2025-08-18_18h22.17.637,tilt_staircase,2024.2.4,None,2025-08-18 18h22.38.209282 -0400,
,,,0,0,0,,,,,,,,,,,,,,,,,,0,0,0,0,317.39038312481716,,,,,,,,,,,,,,,,,,,,,,,,,,,,,,,,,,,,,,,,,,,,,,,,,,,,,,,,,,,,,,,,,,posc_negs,30,15,15,-15,"[5, 2, 1, 0.5]",lin,1,1,8,1,6,32,up,2,-3,-3,-30,317.3851445829496,317.39038312481716,317.8815568329301,317.8815568329301,317.9544973329175,317.9544973329175,317.9544973329175,319.10164345800877,0,,,,,,,,,,,,,,,daniel,001,2025-08-18_18h22.17.637,tilt_staircase,2024.2.4,None,2025-08-18 18h22.38.209282 -0400,
,,,0,0,0,,,,,,,,,,,,,,,,,,0,0,0,0,319.10954049997963,,,,,,,,,,,,,,,,,,,,,,,,,,,,,,,,,,,,,,,,,,,,,,,,,,,,,,,,,,,,,,,,,,posc_noss,30,15,15,-15,"[5, 2, 1, 0.5]",lin,1,1,8,5,6,33,up,2,-3,-3,,319.1027269579936,319.10954049997963,319.5988091658801,319.5988091658801,319.6720840409398,319.6720840409398,319.6720840409398,320.1064591659233,0,,,,,,,,,,,,,,,daniel,001,2025-08-18_18h22.17.637,tilt_staircase,2024.2.4,None,2025-08-18 18h22.38.209282 -0400,
,,,0,0,0,,,,,,,,,,,,,,,,,,0,0,0,0,320.11487637483515,,,,,,,,,,,,,,,,,,,,,,,,,,,,,,,,,,,,,,,,,,,,,,,,,,,,,,,,,,,,,,,,,,negc_negs,30,-15,15,-15,"[5, 2, 1, 0.5]",lin,1,1,8,0,6,34,down,2,-4,-4,-30,320.1075437499676,320.11487637483515,320.6081222910434,320.6081222910434,320.6828150409274,320.6828150409274,320.6828150409274,321.2174729160033,0,,,,,,,,,,,,,,,daniel,001,2025-08-18_18h22.17.637,tilt_staircase,2024.2.4,None,2025-08-18 18h22.38.209282 -0400,
,,,0,0,0,,,,,,,,,,,,,,,,,,0,0,0,0,321.22310241591185,,,,,,,,,,,,,,,,,,,,,,,,,,,,,,,,,,,,,,,,,,,,,,,,,,,,,,,,,,,,,,,,,,posc_poss,30,15,15,-15,"[5, 2, 1, 0.5]",lin,1,1,8,3,6,35,up,2,4,4,30,321.2184824158903,321.22310241591185,321.7152384999208,321.7152384999208,321.78705849987455,321.78705849987455,321.78705849987455,322.37376533285715,1,,,,,,,,,,,,,,,daniel,001,2025-08-18_18h22.17.637,tilt_staircase,2024.2.4,None,2025-08-18 18h22.38.209282 -0400,
,,,0,0,0,,,,,,,,,,,,,,,,,,0,0,0,0,322.3824890409596,,,,,,,,,,,,,,,,,,,,,,,,,,,,,,,,,,,,,,,,,,,,,,,,,,,,,,,,,,,,,,,,,,posc_poss,30,15,15,-15,"[5, 2, 1, 0.5]",lin,1,1,8,3,7,36,down,1,3,3,30,322.3752126249019,322.3824890409596,322.87484616599977,322.87484616599977,322.9493152908981,322.9493152908981,322.9493152908981,323.90461558289826,1,,,,,,,,,,,,,,,daniel,001,2025-08-18_18h22.17.637,tilt_staircase,2024.2.4,None,2025-08-18 18h22.38.209282 -0400,
,,,0,0,0,,,,,,,,,,,,,,,,,,0,0,0,0,323.91544549982063,,,,,,,,,,,,,,,,,,,,,,,,,,,,,,,,,,,,,,,,,,,,,,,,,,,,,,,,,,,,,,,,,,posc_noss,30,15,15,-15,"[5, 2, 1, 0.5]",lin,1,1,8,5,7,37,up,2,-1,-1,,323.90561408293433,323.91544549982063,324.39944958291017,324.39944958291017,324.4719191659242,324.4719191659242,324.48256862489507,324.95725320791826,0,,,,,,,,,,,,,,,daniel,001,2025-08-18_18h22.17.637,tilt_staircase,2024.2.4,None,2025-08-18 18h22.38.209282 -0400,
,,,0,0,0,,,,,,,,,,,,,,,,,,0,0,0,0,324.96505554090254,,,,,,,,,,,,,,,,,,,,,,,,,,,,,,,,,,,,,,,,,,,,,,,,,,,,,,,,,,,,,,,,,,negc_poss,30,-15,15,-15,"[5, 2, 1, 0.5]",lin,1,1,8,2,7,38,down,2,1,1,30,324.9583364999853,324.96505554090254,325.45824637496844,325.45824637496844,325.53870787494816,325.53870787494816,325.53294958290644,326.05676441593096,0,,,,,,,,,,,,,,,daniel,001,2025-08-18_18h22.17.637,tilt_staircase,2024.2.4,None,2025-08-18 18h22.38.209282 -0400,
,,,0,0,0,,,,,,,,,,,,,,,,,,0,0,0,0,326.0654386659153,,,,,,,,,,,,,,,,,,,,,,,,,,,,,,,,,,,,,,,,,,,,,,,,,,,,,,,,,,,,,,,,,,negc_noss,30,-15,15,-15,"[5, 2, 1, 0.5]",lin,1,1,8,4,7,39,down,2,1,1,,326.0580546660349,326.0654386659153,326.5585151249543,326.5585151249543,326.6324785409961,326.6324785409961,326.6324785409961,327.1232940829359,1,,,,,,,,,,,,,,,daniel,001,2025-08-18_18h22.17.637,tilt_staircase,2024.2.4,None,2025-08-18 18h22.38.209282 -0400,
,,,0,0,0,,,,,,,,,,,,,,,,,,0,0,0,0,327.1315772498492,,,,,,,,,,,,,,,,,,,,,,,,,,,,,,,,,,,,,,,,,,,,,,,,,,,,,,,,,,,,,,,,,,negc_negs,30,-15,15,-15,"[5, 2, 1, 0.5]",lin,1,1,8,0,7,40,up,1,-3,-3,-30,327.1243807908613,327.1315772498492,327.61491608293727,327.61491608293727,327.6879204160068,327.6879204160068,327.6992855409626,328.4070602080319,0,,,,,,,,,,,,,,,daniel,001,2025-08-18_18h22.17.637,tilt_staircase,2024.2.4,None,2025-08-18 18h22.38.209282 -0400,
,,,0,0,0,,,,,,,,,,,,,,,,,,0,0,0,0,328.4155019579921,,,,,,,,,,,,,,,,,,,,,,,,,,,,,,,,,,,,,,,,,,,,,,,,,,,,,,,,,,,,,,,,,,posc_negs,30,15,15,-15,"[5, 2, 1, 0.5]",lin,1,1,8,1,7,41,up,2,-1,-1,-30,328.4084359998815,328.4155019579921,328.90780020784587,328.90780020784587,328.98297920799814,328.98297920799814,328.98297920799814,329.4177844580263,1,,,,,,,,,,,,,,,daniel,001,2025-08-18_18h22.17.637,tilt_staircase,2024.2.4,None,2025-08-18 18h22.38.209282 -0400,
,,,0,0,0,,,,,,,,,,,,,,,,,,0,0,0,0,329.42575262486935,,,,,,,,,,,,,,,,,,,,,,,,,,,,,,,,,,,,,,,,,,,,,,,,,,,,,,,,,,,,,,,,,,negc_noss,30,-15,15,-15,"[5, 2, 1, 0.5]",lin,1,1,8,4,8,42,down,2,-1,-1,,329.41881279088557,329.42575262486935,329.91606658301316,329.91606658301316,329.98897316586226,329.98897316586226,329.98897316586226,330.6517352499068,0,,,,,,,,,,,,,,,daniel,001,2025-08-18_18h22.17.637,tilt_staircase,2024.2.4,None,2025-08-18 18h22.38.209282 -0400,
,,,0,0,0,,,,,,,,,,,,,,,,,,0,0,0,0,330.66093849996105,,,,,,,,,,,,,,,,,,,,,,,,,,,,,,,,,,,,,,,,,,,,,,,,,,,,,,,,,,,,,,,,,,negc_negs,30,-15,15,-15,"[5, 2, 1, 0.5]",lin,1,1,8,0,8,43,up,1,-2,-2,-30,330.65358895785175,330.66093849996105,331.1482122079469,331.1482122079469,331.2211805409752,331.2211805409752,331.2211805409752,332.62397716590203,0,,,,,,,,,,,,,,,daniel,001,2025-08-18_18h22.17.637,tilt_staircase,2024.2.4,None,2025-08-18 18h22.38.209282 -0400,
,,,0,0,0,,,,,,,,,,,,,,,,,,0,0,0,0,332.63254733290523,,,,,,,,,,,,,,,,,,,,,,,,,,,,,,,,,,,,,,,,,,,,,,,,,,,,,,,,,,,,,,,,,,negc_poss,30,-15,15,-15,"[5, 2, 1, 0.5]",lin,1,1,8,2,8,44,up,1,2,2,30,332.62526762485504,332.63254733290523,333.1243766248226,333.1243766248226,333.1992604578845,333.1992604578845,333.1992604578845,334.03951470786706,0,,,,,,,,,,,,,,,daniel,001,2025-08-18_18h22.17.637,tilt_staircase,2024.2.4,None,2025-08-18 18h22.38.209282 -0400,
,,,0,0,0,,,,,,,,,,,,,,,,,,0,0,0,0,334.04823020799085,,,,,,,,,,,,,,,,,,,,,,,,,,,,,,,,,,,,,,,,,,,,,,,,,,,,,,,,,,,,,,,,,,posc_noss,30,15,15,-15,"[5, 2, 1, 0.5]",lin,1,1,8,5,8,45,up,2,1,1,,334.04055895796046,334.04823020799085,334.53244174993597,334.53244174993597,334.60413908283226,334.60413908283226,334.61608204082586,335.06848574988544,1,,,,,,,,,,,,,,,daniel,001,2025-08-18_18h22.17.637,tilt_staircase,2024.2.4,None,2025-08-18 18h22.38.209282 -0400,
,,,0,0,0,,,,,,,,,,,,,,,,,,0,0,0,0,335.0761793330312,,,,,,,,,,,,,,,,,,,,,,,,,,,,,,,,,,,,,,,,,,,,,,,,,,,,,,,,,,,,,,,,,,posc_negs,30,15,15,-15,"[5, 2, 1, 0.5]",lin,1,1,8,1,8,46,down,1,-2,-2,-30,335.0695693329908,335.0761793330312,335.5658799158409,335.5658799158409,335.63892549998127,335.63892549998127,335.63892549998127,336.9201202078257,0,,,,,,,,,,,,,,,daniel,001,2025-08-18_18h22.17.637,tilt_staircase,2024.2.4,None,2025-08-18 18h22.38.209282 -0400,
,,,0,0,0,,,,,,,,,,,,,,,,,,0,0,0,0,336.93181995791383,,,,,,,,,,,,,,,,,,,,,,,,,,,,,,,,,,,,,,,,,,,,,,,,,,,,,,,,,,,,,,,,,,posc_poss,30,15,15,-15,"[5, 2, 1, 0.5]",lin,1,1,8,3,8,47,down,1,2,2,30,336.9205993330106,336.93181995791383,337.4150254158303,337.4150254158303,337.48689083289355,337.48689083289355,337.498194915941,337.9517354159616,0,,,,,,,,,,,,,,,daniel,001,2025-08-18_18h22.17.637,tilt_staircase,2024.2.4,None,2025-08-18 18h22.38.209282 -0400,
,,,0,0,0,,,,,,,,,,,,,,,,,,0,0,0,0,337.9608934998978,,,,,,,,,,,,,,,,,,,,,,,,,,,,,,,,,,,,,,,,,,,,,,,,,,,,,,,,,,,,,,,,,,posc_negs,30,15,15,-15,"[5, 2, 1, 0.5]",lin,1,1,8,1,9,48,up,0.5,-1.5,-1.5,-30,337.95352591597475,337.9608934998978,338.44920466584153,338.44920466584153,338.52231595804915,338.52231595804915,338.52231595804915,339.06781899998896,1,,,,,,,,,,,,,,,daniel,001,2025-08-18_18h22.17.637,tilt_staircase,2024.2.4,None,2025-08-18 18h22.38.209282 -0400,
,,,0,0,0,,,,,,,,,,,,,,,,,,0,0,0,0,339.0756654578727,,,,,,,,,,,,,,,,,,,,,,,,,,,,,,,,,,,,,,,,,,,,,,,,,,,,,,,,,,,,,,,,,,negc_noss,30,-15,15,-15,"[5, 2, 1, 0.5]",lin,1,1,8,4,9,49,up,1,0,0,,339.0690224999562,339.0756654578727,339.5657922909595,339.5657922909595,339.63915958302096,339.63915958302096,339.63915958302096,340.4905119999312,1,,,,,,,,,,,,,,,daniel,001,2025-08-18_18h22.17.637,tilt_staircase,2024.2.4,None,2025-08-18 18h22.38.209282 -0400,
,,,0,0,0,,,,,,,,,,,,,,,,,,0,0,0,0,340.4993801659439,,,,,,,,,,,,,,,,,,,,,,,,,,,,,,,,,,,,,,,,,,,,,,,,,,,,,,,,,,,,,,,,,,posc_poss,30,15,15,-15,"[5, 2, 1, 0.5]",lin,1,1,8,3,9,50,up,0.5,2.5,2.5,30,340.4919498329982,340.4993801659439,340.99205537489615,340.99205537489615,341.06587170786224,341.06587170786224,341.06587170786224,341.7507564998232,1,,,,,,,,,,,,,,,daniel,001,2025-08-18_18h22.17.637,tilt_staircase,2024.2.4,None,2025-08-18 18h22.38.209282 -0400,
,,,0,0,0,,,,,,,,,,,,,,,,,,0,0,0,0,341.7583827499766,,,,,,,,,,,,,,,,,,,,,,,,,,,,,,,,,,,,,,,,,,,,,,,,,,,,,,,,,,,,,,,,,,posc_noss,30,15,15,-15,"[5, 2, 1, 0.5]",lin,1,1,8,5,9,51,down,1,0,0,,341.7517323328648,341.7583827499766,342.2482651658356,342.2482651658356,342.32230224995874,342.32230224995874,342.32230224995874,342.86844645789824,1,,,,,,,,,,,,,,,daniel,001,2025-08-18_18h22.17.637,tilt_staircase,2024.2.4,None,2025-08-18 18h22.38.209282 -0400,
,,,0,0,0,,,,,,,,,,,,,,,,,,0,0,0,0,342.8767921659164,,,,,,,,,,,,,,,,,,,,,,,,,,,,,,,,,,,,,,,,,,,,,,,,,,,,,,,,,,,,,,,,,,negc_negs,30,-15,15,-15,"[5, 2, 1, 0.5]",lin,1,1,8,0,9,52,up,1,-1,-1,-30,342.869816374965,342.8767921659164,343.365947250044,343.365947250044,343.43893933296204,343.43893933296204,343.43893933296204,343.8680680410471,1,,,,,,,,,,,,,,,daniel,001,2025-08-18_18h22.17.637,tilt_staircase,2024.2.4,None,2025-08-18 18h22.38.209282 -0400,
,,,0,0,0,,,,,,,,,,,,,,,,,,0,0,0,0,343.87644012481906,,,,,,,,,,,,,,,,,,,,,,,,,,,,,,,,,,,,,,,,,,,,,,,,,,,,,,,,,,,,,,,,,,negc_poss,30,-15,15,-15,"[5, 2, 1, 0.5]",lin,1,1,8,2,9,53,up,1,3,3,30,343.8695522500202,343.87644012481906,344.3658600829076,344.3658600829076,344.4383351248689,344.4383351248689,344.4383351248689,344.93824866600335,1,,,,,,,,,,,,,,,daniel,001,2025-08-18_18h22.17.637,tilt_staircase,2024.2.4,None,2025-08-18 18h22.38.209282 -0400,
,,,0,0,0,,,,,,,,,,,,,,,,,,0,0,0,0,344.94847225002013,,,,,,,,,,,,,,,,,,,,,,,,,,,,,,,,,,,,,,,,,,,,,,,,,,,,,,,,,,,,,,,,,,posc_poss,30,15,15,-15,"[5, 2, 1, 0.5]",lin,1,1,8,3,10,54,down,0.5,2.0,2.0,30,344.93923929100856,344.94847225002013,345.43265937501565,345.43265937501565,345.5047049999703,345.5047049999703,345.51591149996966,346.2847812909167,0,,,,,,,,,,,,,,,daniel,001,2025-08-18_18h22.17.637,tilt_staircase,2024.2.4,None,2025-08-18 18h22.38.209282 -0400,
,,,0,0,0,,,,,,,,,,,,,,,,,,0,0,0,0,346.2926122909412,,,,,,,,,,,,,,,,,,,,,,,,,,,,,,,,,,,,,,,,,,,,,,,,,,,,,,,,,,,,,,,,,,negc_poss,30,-15,15,-15,"[5, 2, 1, 0.5]",lin,1,1,8,2,10,55,down,0.5,2.5,2.5,30,346.28579974989407,346.2926122909412,346.78271091589704,346.78271091589704,346.85567979095504,346.85567979095504,346.85567979095504,347.33813054091297,0,,,,,,,,,,,,,,,daniel,001,2025-08-18_18h22.17.637,tilt_staircase,2024.2.4,None,2025-08-18 18h22.38.209282 -0400,
,,,0,0,0,,,,,,,,,,,,,,,,,,0,0,0,0,347.34871783293784,,,,,,,,,,,,,,,,,,,,,,,,,,,,,,,,,,,,,,,,,,,,,,,,,,,,,,,,,,,,,,,,,,posc_noss,30,15,15,-15,"[5, 2, 1, 0.5]",lin,1,1,8,5,10,56,down,1,-1,-1,,347.3390977908857,347.34871783293784,347.83272166596726,347.83272166596726,347.9043172078673,347.9043172078673,347.9159246250056,348.3901531249285,0,,,,,,,,,,,,,,,daniel,001,2025-08-18_18h22.17.637,tilt_staircase,2024.2.4,None,2025-08-18 18h22.38.209282 -0400,
,,,0,0,0,,,,,,,,,,,,,,,,,,0,0,0,0,348.398173708003,,,,,,,,,,,,,,,,,,,,,,,,,,,,,,,,,,,,,,,,,,,,,,,,,,,,,,,,,,,,,,,,,,posc_negs,30,15,15,-15,"[5, 2, 1, 0.5]",lin,1,1,8,1,10,57,down,0.5,-2.0,-2.0,-30,348.3911345829256,348.398173708003,348.89086237503216,348.89086237503216,348.96594766597264,348.96594766597264,348.96594766597264,349.73813529103063,1,,,,,,,,,,,,,,,daniel,001,2025-08-18_18h22.17.637,tilt_staircase,2024.2.4,None,2025-08-18 18h22.38.209282 -0400,
,,,0,0,0,,,,,,,,,,,,,,,,,,0,0,0,0,349.7491685829591,,,,,,,,,,,,,,,,,,,,,,,,,,,,,,,,,,,,,,,,,,,,,,,,,,,,,,,,,,,,,,,,,,negc_negs,30,-15,15,-15,"[5, 2, 1, 0.5]",lin,1,1,8,0,10,58,down,0.5,-1.5,-1.5,-30,349.739114665892,349.7491685829591,350.23269929084927,350.23269929084927,350.3036989159882,350.3036989159882,350.31629420793615,350.91733341594227,1,,,,,,,,,,,,,,,daniel,001,2025-08-18_18h22.17.637,tilt_staircase,2024.2.4,None,2025-08-18 18h22.38.209282 -0400,
,,,0,0,0,,,,,,,,,,,,,,,,,,0,0,0,0,350.92521141585894,,,,,,,,,,,,,,,,,,,,,,,,,,,,,,,,,,,,,,,,,,,,,,,,,,,,,,,,,,,,,,,,,,negc_noss,30,-15,15,-15,"[5, 2, 1, 0.5]",lin,1,1,8,4,10,59,down,0.5,-0.5,-0.5,,350.9183071248699,350.92521141585894,351.41485041589476,351.41485041589476,351.48916033282876,351.48916033282876,351.48916033282876,352.6065470830072,1,,,,,,,,,,,,,,,daniel,001,2025-08-18_18h22.17.637,tilt_staircase,2024.2.4,None,2025-08-18 18h22.38.209282 -0400,
,,,0,0,0,,,,,,,,,,,,,,,,,,0,0,0,0,352.6148569579236,,,,,,,,,,,,,,,,,,,,,,,,,,,,,,,,,,,,,,,,,,,,,,,,,,,,,,,,,,,,,,,,,,posc_poss,30,15,15,-15,"[5, 2, 1, 0.5]",lin,1,1,8,3,11,60,up,0.5,2.5,2.5,30,352.60791074996814,352.6148569579236,353.1070567078423,353.1070567078423,353.18272833293304,353.18272833293304,353.18272833293304,354.8394960828591,0,,,,,,,,,,,,,,,daniel,001,2025-08-18_18h22.17.637,tilt_staircase,2024.2.4,None,2025-08-18 18h22.38.209282 -0400,
,,,0,0,0,,,,,,,,,,,,,,,,,,0,0,0,0,354.84819212486036,,,,,,,,,,,,,,,,,,,,,,,,,,,,,,,,,,,,,,,,,,,,,,,,,,,,,,,,,,,,,,,,,,negc_noss,30,-15,15,-15,"[5, 2, 1, 0.5]",lin,1,1,8,4,11,61,down,0.5,-1.0,-1.0,,354.84055637498386,354.84819212486036,355.34128962503746,355.34128962503746,355.4159493329935,355.4159493329935,355.4159493329935,355.89976245793514,0,,,,,,,,,,,,,,,daniel,001,2025-08-18_18h22.17.637,tilt_staircase,2024.2.4,None,2025-08-18 18h22.38.209282 -0400,
,,,0,0,0,,,,,,,,,,,,,,,,,,0,0,0,0,355.9052026248537,,,,,,,,,,,,,,,,,,,,,,,,,,,,,,,,,,,,,,,,,,,,,,,,,,,,,,,,,,,,,,,,,,posc_noss,30,15,15,-15,"[5, 2, 1, 0.5]",lin,1,1,8,5,11,62,up,0.5,-0.5,-0.5,,355.9003889998421,355.9052026248537,356.3905287908856,356.3905287908856,356.4658828750253,356.4658828750253,356.47234612493776,357.30168541590683,1,,,,,,,,,,,,,,,daniel,001,2025-08-18_18h22.17.637,tilt_staircase,2024.2.4,None,2025-08-18 18h22.38.209282 -0400,
,,,0,0,0,,,,,,,,,,,,,,,,,,0,0,0,0,357.31043270789087,,,,,,,,,,,,,,,,,,,,,,,,,,,,,,,,,,,,,,,,,,,,,,,,,,,,,,,,,,,,,,,,,,posc_negs,30,15,15,-15,"[5, 2, 1, 0.5]",lin,1,1,8,1,11,63,down,0.5,-2.5,-2.5,-30,357.302967333002,357.31043270789087,357.79847887484357,357.79847887484357,357.8705646658782,357.8705646658782,357.8705646658782,358.49061066587456,0,,,,,,,,,,,,,,,daniel,001,2025-08-18_18h22.17.637,tilt_staircase,2024.2.4,None,2025-08-18 18h22.38.209282 -0400,
,,,0,0,0,,,,,,,,,,,,,,,,,,0,0,0,0,358.4991935000289,,,,,,,,,,,,,,,,,,,,,,,,,,,,,,,,,,,,,,,,,,,,,,,,,,,,,,,,,,,,,,,,,,negc_poss,30,-15,15,-15,"[5, 2, 1, 0.5]",lin,1,1,8,2,11,64,up,0.5,3.0,3.0,30,358.4919792499859,358.4991935000289,358.991731707938,358.991731707938,359.0659197908826,359.0659197908826,359.0659197908826,359.6517149999272,0,,,,,,,,,,,,,,,daniel,001,2025-08-18_18h22.17.637,tilt_staircase,2024.2.4,None,2025-08-18 18h22.38.209282 -0400,
,,,0,0,0,,,,,,,,,,,,,,,,,,0,0,0,0,359.66016174992546,,,,,,,,,,,,,,,,,,,,,,,,,,,,,,,,,,,,,,,,,,,,,,,,,,,,,,,,,,,,,,,,,,negc_negs,30,-15,15,-15,"[5, 2, 1, 0.5]",lin,1,1,8,0,11,65,down,0.5,-2.0,-2.0,-30,359.6530255828984,359.66016174992546,360.1482737909537,360.1482737909537,360.2217885409482,360.2217885409482,360.2217885409482,360.71769241592847,1,,,,,,,,,,,,,,,daniel,001,2025-08-18_18h22.17.637,tilt_staircase,2024.2.4,None,2025-08-18 18h22.38.209282 -0400,
,,,0,0,0,,,,,,,,,,,,,,,,,,0,0,0,0,360.726030707825,,,,,,,,,,,,,,,,,,,,,,,,,,,,,,,,,,,,,,,,,,,,,,,,,,,,,,,,,,,,,,,,,,posc_negs,30,15,15,-15,"[5, 2, 1, 0.5]",lin,1,1,8,1,12,66,up,0.5,-2.0,-2.0,-30,360.71901037497446,360.726030707825,361.215882249875,361.215882249875,361.28786895796657,361.28786895796657,361.28786895796657,361.8060885828454,1,,,,,,,,,,,,,,,daniel,001,2025-08-18_18h22.17.637,tilt_staircase,2024.2.4,None,2025-08-18 18h22.38.209282 -0400,
,,,0,0,0,,,,,,,,,,,,,,,,,,0,0,0,0,361.8148514579516,,,,,,,,,,,,,,,,,,,,,,,,,,,,,,,,,,,,,,,,,,,,,,,,,,,,,,,,,,,,,,,,,,negc_poss,30,-15,15,-15,"[5, 2, 1, 0.5]",lin,1,1,8,2,12,67,up,0.5,3.5,3.5,30,361.80716870795004,361.8148514579516,362.30789033300243,362.30789033300243,362.3818409999367,362.3818409999367,362.3818409999367,362.9338716659695,1,,,,,,,,,,,,,,,daniel,001,2025-08-18_18h22.17.637,tilt_staircase,2024.2.4,None,2025-08-18 18h22.38.209282 -0400,
,,,0,0,0,,,,,,,,,,,,,,,,,,0,0,0,0,362.9412361658178,,,,,,,,,,,,,,,,,,,,,,,,,,,,,,,,,,,,,,,,,,,,,,,,,,,,,,,,,,,,,,,,,,negc_noss,30,-15,15,-15,"[5, 2, 1, 0.5]",lin,1,1,8,4,12,68,up,0.5,-0.5,-0.5,,362.9348662078846,362.9412361658178,363.43179095792584,363.43179095792584,363.504714832874,363.504714832874,363.504714832874,364.6849347499665,0,,,,,,,,,,,,,,,daniel,001,2025-08-18_18h22.17.637,tilt_staircase,2024.2.4,None,2025-08-18 18h22.38.209282 -0400,
,,,0,0,0,,,,,,,,,,,,,,,,,,0,0,0,0,364.693704291014,,,,,,,,,,,,,,,,,,,,,,,,,,,,,,,,,,,,,,,,,,,,,,,,,,,,,,,,,,,,,,,,,,posc_poss,30,15,15,-15,"[5, 2, 1, 0.5]",lin,1,1,8,3,12,69,up,0.5,3.0,3.0,30,364.6865619998425,364.693704291014,365.1823630828876,365.1823630828876,365.2557735829614,365.2557735829614,365.2557735829614,366.0674791249912,1,,,,,,,,,,,,,,,daniel,001,2025-08-18_18h22.17.637,tilt_staircase,2024.2.4,None,2025-08-18 18h22.38.209282 -0400,
,,,0,0,0,,,,,,,,,,,,,,,,,,0,0,0,0,366.0756326660048,,,,,,,,,,,,,,,,,,,,,,,,,,,,,,,,,,,,,,,,,,,,,,,,,,,,,,,,,,,,,,,,,,posc_noss,30,15,15,-15,"[5, 2, 1, 0.5]",lin,1,1,8,5,12,70,down,0.5,-1.0,-1.0,,366.0686065000482,366.0756326660048,366.5660465408582,366.5660465408582,366.6381597078871,366.6381597078871,366.6381597078871,367.1670381659642,0,,,,,,,,,,,,,,,daniel,001,2025-08-18_18h22.17.637,tilt_staircase,2024.2.4,None,2025-08-18 18h22.38.209282 -0400,
,,,0,0,0,,,,,,,,,,,,,,,,,,0,0,0,0,367.175207125023,,,,,,,,,,,,,,,,,,,,,,,,,,,,,,,,,,,,,,,,,,,,,,,,,,,,,,,,,,,,,,,,,,negc_negs,30,-15,15,-15,"[5, 2, 1, 0.5]",lin,1,1,8,0,12,71,down,0.5,-2.5,-2.5,-30,367.16808329103515,367.175207125023,367.6658974578604,367.6658974578604,367.7381562499795,367.7381562499795,367.7381562499795,368.1841604160145,1,,,,,,,,,,,,,,,daniel,001,2025-08-18_18h22.17.637,tilt_staircase,2024.2.4,None,2025-08-18 18h22.38.209282 -0400,
,,,0,0,0,,,,,,,,,,,,,,,,,,0,0,0,0,368.19189470796846,,,,,,,,,,,,,,,,,,,,,,,,,,,,,,,,,,,,,,,,,,,,,,,,,,,,,,,,,,,,,,,,,,negc_poss,30,-15,15,-15,"[5, 2, 1, 0.5]",lin,1,1,8,2,13,72,down,0.5,3.0,3.0,30,368.18518762500025,368.19189470796846,368.6822091250215,368.6822091250215,368.755566583015,368.755566583015,368.755566583015,369.4822542909533,1,,,,,,,,,,,,,,,daniel,001,2025-08-18_18h22.17.637,tilt_staircase,2024.2.4,None,2025-08-18 18h22.38.209282 -0400,
,,,0,0,0,,,,,,,,,,,,,,,,,,0,0,0,0,369.48688383284025,,,,,,,,,,,,,,,,,,,,,,,,,,,,,,,,,,,,,,,,,,,,,,,,,,,,,,,,,,,,,,,,,,posc_poss,30,15,15,-15,"[5, 2, 1, 0.5]",lin,1,1,8,3,13,73,down,0.5,2.5,2.5,30,369.4833140410483,369.48688383284025,369.97429174999706,369.97429174999706,370.049145875033,370.049145875033,370.05353162484244,370.98474733298644,1,,,,,,,,,,,,,,,daniel,001,2025-08-18_18h22.17.637,tilt_staircase,2024.2.4,None,2025-08-18 18h22.38.209282 -0400,
,,,0,0,0,,,,,,,,,,,,,,,,,,0,0,0,0,370.99283533287235,,,,,,,,,,,,,,,,,,,,,,,,,,,,,,,,,,,,,,,,,,,,,,,,,,,,,,,,,,,,,,,,,,posc_noss,30,15,15,-15,"[5, 2, 1, 0.5]",lin,1,1,8,5,13,74,up,0.5,-0.5,-0.5,,370.985856999876,370.99283533287235,371.4825286248233,371.4825286248233,371.5554556660354,371.5554556660354,371.5554556660354,372.026904999977,0,,,,,,,,,,,,,,,daniel,001,2025-08-18_18h22.17.637,tilt_staircase,2024.2.4,None,2025-08-18 18h22.38.209282 -0400,
,,,0,0,0,,,,,,,,,,,,,,,,,,0,0,0,0,372.0325183328241,,,,,,,,,,,,,,,,,,,,,,,,,,,,,,,,,,,,,,,,,,,,,,,,,,,,,,,,,,,,,,,,,,posc_negs,30,15,15,-15,"[5, 2, 1, 0.5]",lin,1,1,8,1,13,75,down,0.5,-2.5,-2.5,-30,372.0279344159644,372.0325183328241,372.5240260409191,372.5240260409191,372.5983179998584,372.5983179998584,372.5983179998584,373.81829499988817,0,,,,,,,,,,,,,,,daniel,001,2025-08-18_18h22.17.637,tilt_staircase,2024.2.4,None,2025-08-18 18h22.38.209282 -0400,
,,,0,0,0,,,,,,,,,,,,,,,,,,0,0,0,0,373.8245849998202,,,,,,,,,,,,,,,,,,,,,,,,,,,,,,,,,,,,,,,,,,,,,,,,,,,,,,,,,,,,,,,,,,negc_noss,30,-15,15,-15,"[5, 2, 1, 0.5]",lin,1,1,8,4,13,76,up,0.5,0.0,0.0,,373.81935345800593,373.8245849998202,374.31541895796545,374.31541895796545,374.3887374580372,374.3887374580372,374.3887374580372,374.93475837493315,1,,,,,,,,,,,,,,,daniel,001,2025-08-18_18h22.17.637,tilt_staircase,2024.2.4,None,2025-08-18 18h22.38.209282 -0400,
,,,0,0,0,,,,,,,,,,,,,,,,,,0,0,0,0,374.94300937489606,,,,,,,,,,,,,,,,,,,,,,,,,,,,,,,,,,,,,,,,,,,,,,,,,,,,,,,,,,,,,,,,,,negc_negs,30,-15,15,-15,"[5, 2, 1, 0.5]",lin,1,1,8,0,13,77,down,0.5,-3.0,-3.0,-30,374.9361237080302,374.94300937489606,375.4316319159698,375.4316319159698,375.5031225408893,375.5031225408893,375.5031225408893,376.0869228329975,0,,,,,,,,,,,,,,,daniel,001,2025-08-18_18h22.17.637,tilt_staircase,2024.2.4,None,2025-08-18 18h22.38.209282 -0400,
,,,0,0,0,,,,,,,,,,,,,,,,,,0,0,0,0,376.0983147500083,,,,,,,,,,,,,,,,,,,,,,,,,,,,,,,,,,,,,,,,,,,,,,,,,,,,,,,,,,,,,,,,,,posc_noss,30,15,15,-15,"[5, 2, 1, 0.5]",lin,1,1,8,5,14,78,up,0.5,0.0,0.0,,376.0875592499506,376.0983147500083,376.5819122500252,376.5819122500252,376.65319233294576,376.65319233294576,376.66581508284435,377.418049040949,0,,,,,,,,,,,,,,,daniel,001,2025-08-18_18h22.17.637,tilt_staircase,2024.2.4,None,2025-08-18 18h22.38.209282 -0400,
,,,0,0,0,,,,,,,,,,,,,,,,,,0,0,0,0,377.4268195829354,,,,,,,,,,,,,,,,,,,,,,,,,,,,,,,,,,,,,,,,,,,,,,,,,,,,,,,,,,,,,,,,,,negc_negs,30,-15,15,-15,"[5, 2, 1, 0.5]",lin,1,1,8,0,14,79,up,0.5,-2.5,-2.5,-30,377.41955466591753,377.4268195829354,377.91573449992575,377.91573449992575,377.98628258286044,377.98628258286044,377.98628258286044,378.9179479999002,0,,,,,,,,,,,,,,,daniel,001,2025-08-18_18h22.17.637,tilt_staircase,2024.2.4,None,2025-08-18 18h22.38.209282 -0400,
,,,0,0,0,,,,,,,,,,,,,,,,,,0,0,0,0,378.9266113329213,,,,,,,,,,,,,,,,,,,,,,,,,,,,,,,,,,,,,,,,,,,,,,,,,,,,,,,,,,,,,,,,,,posc_negs,30,15,15,-15,"[5, 2, 1, 0.5]",lin,1,1,8,1,14,80,up,0.5,-2.0,-2.0,-30,378.9192002499476,378.9266113329213,379.41509824991226,379.41509824991226,379.4878375409171,379.4878375409171,379.4878375409171,379.91748933284543,1,,,,,,,,,,,,,,,daniel,001,2025-08-18_18h22.17.637,tilt_staircase,2024.2.4,None,2025-08-18 18h22.38.209282 -0400,
,,,0,0,0,,,,,,,,,,,,,,,,,,0,0,0,0,379.92573666595854,,,,,,,,,,,,,,,,,,,,,,,,,,,,,,,,,,,,,,,,,,,,,,,,,,,,,,,,,,,,,,,,,,posc_poss,30,15,15,-15,"[5, 2, 1, 0.5]",lin,1,1,8,3,14,81,down,0.5,2.0,2.0,30,379.9185891249217,379.92573666595854,380.41500616585836,380.41500616585836,380.48856608290225,380.48856608290225,380.48856608290225,381.32304449984804,0,,,,,,,,,,,,,,,daniel,001,2025-08-18_18h22.17.637,tilt_staircase,2024.2.4,None,2025-08-18 18h22.38.209282 -0400,
,,,0,0,0,,,,,,,,,,,,,,,,,,0,0,0,0,381.3314332498703,,,,,,,,,,,,,,,,,,,,,,,,,,,,,,,,,,,,,,,,,,,,,,,,,,,,,,,,,,,,,,,,,,negc_noss,30,-15,15,-15,"[5, 2, 1, 0.5]",lin,1,1,8,4,14,82,down,0.5,-0.5,-0.5,,381.3241357910447,381.3314332498703,381.82440404081717,381.82440404081717,381.9029034159612,381.9029034159612,381.89880916592665,382.989133332856,0,,,,,,,,,,,,,,,daniel,001,2025-08-18_18h22.17.637,tilt_staircase,2024.2.4,None,2025-08-18 18h22.38.209282 -0400,
,,,0,0,0,,,,,,,,,,,,,,,,,,0,0,0,0,382.99804224981926,,,,,,,,,,,,,,,,,,,,,,,,,,,,,,,,,,,,,,,,,,,,,,,,,,,,,,,,,,,,,,,,,,negc_poss,30,-15,15,-15,"[5, 2, 1, 0.5]",lin,1,1,8,2,14,83,down,0.5,2.5,2.5,30,382.9899086658843,382.99804224981926,383.4814185409341,383.4814185409341,383.55450337496586,383.55450337496586,383.56590629089624,384.2006794579793,1,,,,,,,,,,,,,,,daniel,001,2025-08-18_18h22.17.637,tilt_staircase,2024.2.4,None,2025-08-18 18h22.38.209282 -0400,
,,,0,0,0,,,,,,,,,,,,,,,,,,0,0,0,0,384.2084104998503,,,,,,,,,,,,,,,,,,,,,,,,,,,,,,,,,,,,,,,,,,,,,,,,,,,,,,,,,,,,,,,,,,negc_poss,30,-15,15,-15,"[5, 2, 1, 0.5]",lin,1,1,8,2,15,84,down,0.5,2.0,2.0,30,384.2016933748964,384.2084104998503,384.6981713748537,384.6981713748537,384.7723238749895,384.7723238749895,384.7723238749895,385.5896710830275,0,,,,,,,,,,,,,,,daniel,001,2025-08-18_18h22.17.637,tilt_staircase,2024.2.4,None,2025-08-18 18h22.38.209282 -0400,
,,,0,0,0,,,,,,,,,,,,,,,,,,0,0,0,0,385.5982487499714,,,,,,,,,,,,,,,,,,,,,,,,,,,,,,,,,,,,,,,,,,,,,,,,,,,,,,,,,,,,,,,,,,negc_noss,30,-15,15,-15,"[5, 2, 1, 0.5]",lin,1,1,8,4,15,85,up,0.5,0.0,0.0,,385.59072108287364,385.5982487499714,386.09108216594905,386.09108216594905,386.1657269578427,386.1657269578427,386.1657269578427,386.9014760828577,0,,,,,,,,,,,,,,,daniel,001,2025-08-18_18h22.17.637,tilt_staircase,2024.2.4,None,2025-08-18 18h22.38.209282 -0400,
,,,0,0,0,,,,,,,,,,,,,,,,,,0,0,0,0,386.9101832078304,,,,,,,,,,,,,,,,,,,,,,,,,,,,,,,,,,,,,,,,,,,,,,,,,,,,,,,,,,,,,,,,,,posc_negs,30,15,15,-15,"[5, 2, 1, 0.5]",lin,1,1,8,1,15,86,down,0.5,-2.5,-2.5,-30,386.9030405830126,386.9101832078304,387.399395290995,387.399395290995,387.47151791583747,387.47151791583747,387.47151791583747,388.18900999985635,1,,,,,,,,,,,,,,,daniel,001,2025-08-18_18h22.17.637,tilt_staircase,2024.2.4,None,2025-08-18 18h22.38.209282 -0400,
,,,0,0,0,,,,,,,,,,,,,,,,,,0,0,0,0,388.198053332977,,,,,,,,,,,,,,,,,,,,,,,,,,,,,,,,,,,,,,,,,,,,,,,,,,,,,,,,,,,,,,,,,,negc_negs,30,-15,15,-15,"[5, 2, 1, 0.5]",lin,1,1,8,0,15,87,up,0.5,-2.0,-2.0,-30,388.19006558298133,388.198053332977,388.68139533302747,388.68139533302747,388.7538714578841,388.7538714578841,388.7658067080192,389.7230406659655,1,,,,,,,,,,,,,,,daniel,001,2025-08-18_18h22.17.637,tilt_staircase,2024.2.4,None,2025-08-18 18h22.38.209282 -0400,
,,,0,0,0,,,,,,,,,,,,,,,,,,0,0,0,0,389.7314238329418,,,,,,,,,,,,,,,,,,,,,,,,,,,,,,,,,,,,,,,,,,,,,,,,,,,,,,,,,,,,,,,,,,posc_poss,30,15,15,-15,"[5, 2, 1, 0.5]",lin,1,1,8,3,15,88,up,0.5,2.5,2.5,30,389.7241433749441,389.7314238329418,390.22446133289486,390.22446133289486,390.299152249936,390.299152249936,390.299152249936,391.17238154099323,1,,,,,,,,,,,,,,,daniel,001,2025-08-18_18h22.17.637,tilt_staircase,2024.2.4,None,2025-08-18 18h22.38.209282 -0400,
,,,0,0,0,,,,,,,,,,,,,,,,,,0,0,0,0,391.18145795795135,,,,,,,,,,,,,,,,,,,,,,,,,,,,,,,,,,,,,,,,,,,,,,,,,,,,,,,,,,,,,,,,,,posc_noss,30,15,15,-15,"[5, 2, 1, 0.5]",lin,1,1,8,5,15,89,up,0.5,0.5,0.5,,391.1737197500188,391.18145795795135,391.67465208284557,391.67465208284557,391.7491092910059,391.7491092910059,391.7491092910059,392.3677786658518,0,,,,,,,,,,,,,,,daniel,001,2025-08-18_18h22.17.637,tilt_staircase,2024.2.4,None,2025-08-18 18h22.38.209282 -0400,
,,,0,0,0,,,,,,,,,,,,,,,,,,0,0,0,0,392.3760010409169,,,,,,,,,,,,,,,,,,,,,,,,,,,,,,,,,,,,,,,,,,,,,,,,,,,,,,,,,,,,,,,,,,posc_negs,30,15,15,-15,"[5, 2, 1, 0.5]",lin,1,1,8,1,16,90,down,0.5,-3.0,-3.0,-30,392.3694062079303,392.3760010409169,392.86587979085743,392.86587979085743,392.93864245782606,392.93864245782606,392.93864245782606,393.70657795784064,1,,,,,,,,,,,,,,,daniel,001,2025-08-18_18h22.17.637,tilt_staircase,2024.2.4,None,2025-08-18 18h22.38.209282 -0400,
,,,0,0,0,,,,,,,,,,,,,,,,,,0,0,0,0,393.7148585410323,,,,,,,,,,,,,,,,,,,,,,,,,,,,,,,,,,,,,,,,,,,,,,,,,,,,,,,,,,,,,,,,,,posc_poss,30,15,15,-15,"[5, 2, 1, 0.5]",lin,1,1,8,3,16,91,down,0.5,2.0,2.0,30,393.70767791592516,393.7148585410323,394.2080699580256,394.2080699580256,394.2824486249592,394.2824486249592,394.2824486249592,395.05043870792724,1,,,,,,,,,,,,,,,daniel,001,2025-08-18_18h22.17.637,tilt_staircase,2024.2.4,None,2025-08-18 18h22.38.209282 -0400,
,,,0,0,0,,,,,,,,,,,,,,,,,,0,0,0,0,395.058059749892,,,,,,,,,,,,,,,,,,,,,,,,,,,,,,,,,,,,,,,,,,,,,,,,,,,,,,,,,,,,,,,,,,posc_noss,30,15,15,-15,"[5, 2, 1, 0.5]",lin,1,1,8,5,16,92,up,0.5,1.0,1.0,,395.05141383293085,395.058059749892,395.54904624982737,395.54904624982737,395.622208124958,395.622208124958,395.622208124958,396.6173443328589,1,,,,,,,,,,,,,,,daniel,001,2025-08-18_18h22.17.637,tilt_staircase,2024.2.4,None,2025-08-18 18h22.38.209282 -0400,
,,,0,0,0,,,,,,,,,,,,,,,,,,0,0,0,0,396.62540545803495,,,,,,,,,,,,,,,,,,,,,,,,,,,,,,,,,,,,,,,,,,,,,,,,,,,,,,,,,,,,,,,,,,negc_poss,30,-15,15,-15,"[5, 2, 1, 0.5]",lin,1,1,8,2,16,93,up,0.5,2.5,2.5,30,396.61841141595505,396.62540545803495,397.1153634998482,397.1153634998482,397.18869254086167,397.18869254086167,397.18869254086167,398.14972216589376,1,,,,,,,,,,,,,,,daniel,001,2025-08-18_18h22.17.637,tilt_staircase,2024.2.4,None,2025-08-18 18h22.38.209282 -0400,
,,,0,0,0,,,,,,,,,,,,,,,,,,0,0,0,0,398.1550785000436,,,,,,,,,,,,,,,,,,,,,,,,,,,,,,,,,,,,,,,,,,,,,,,,,,,,,,,,,,,,,,,,,,negc_negs,30,-15,15,-15,"[5, 2, 1, 0.5]",lin,1,1,8,0,16,94,down,0.5,-2.5,-2.5,-30,398.15070999995805,398.1550785000436,398.6427950828802,398.6427950828802,398.7212831249926,398.7212831249926,398.7212831249926,399.53469958296046,1,,,,,,,,,,,,,,,daniel,001,2025-08-18_18h22.17.637,tilt_staircase,2024.2.4,None,2025-08-18 18h22.38.209282 -0400,
,,,0,0,0,,,,,,,,,,,,,,,,,,0,0,0,0,399.5431068749167,,,,,,,,,,,,,,,,,,,,,,,,,,,,,,,,,,,,,,,,,,,,,,,,,,,,,,,,,,,,,,,,,,negc_noss,30,-15,15,-15,"[5, 2, 1, 0.5]",lin,1,1,8,4,16,95,up,0.5,0.5,0.5,,399.5360407908447,399.5431068749167,400.0325409579091,400.0325409579091,400.1042056658771,400.1042056658771,400.1042056658771,400.6390363329556,1,,,,,,,,,,,,,,,daniel,001,2025-08-18_18h22.17.637,tilt_staircase,2024.2.4,None,2025-08-18 18h22.38.209282 -0400,
,,,0,0,0,,,,,,,,,,,,,,,,,,0,0,0,0,400.6480417079292,,,,,,,,,,,,,,,,,,,,,,,,,,,,,,,,,,,,,,,,,,,,,,,,,,,,,,,,,,,,,,,,,,posc_noss,30,15,15,-15,"[5, 2, 1, 0.5]",lin,1,1,8,5,17,96,down,0.5,0.5,0.5,,400.6402889159508,400.6480417079292,401.13144391588867,401.13144391588867,401.20406224997714,401.20406224997714,401.21593462489545,402.3011755410116,1,,,,,,,,,,,,,,,daniel,001,2025-08-18_18h22.17.637,tilt_staircase,2024.2.4,None,2025-08-18 18h22.38.209282 -0400,
,,,0,0,0,,,,,,,,,,,,,,,,,,0,0,0,0,402.3092561250087,,,,,,,,,,,,,,,,,,,,,,,,,,,,,,,,,,,,,,,,,,,,,,,,,,,,,,,,,,,,,,,,,,negc_noss,30,-15,15,-15,"[5, 2, 1, 0.5]",lin,1,1,8,4,17,97,down,0.5,0.0,0.0,,402.3022549159359,402.3092561250087,402.7986555409152,402.7986555409152,402.87209174991585,402.87209174991585,402.87209174991585,403.9341531249229,1,,,,,,,,,,,,,,,daniel,001,2025-08-18_18h22.17.637,tilt_staircase,2024.2.4,None,2025-08-18 18h22.38.209282 -0400,
,,,0,0,0,,,,,,,,,,,,,,,,,,0,0,0,0,403.9422229998745,,,,,,,,,,,,,,,,,,,,,,,,,,,,,,,,,,,,,,,,,,,,,,,,,,,,,,,,,,,,,,,,,,posc_poss,30,15,15,-15,"[5, 2, 1, 0.5]",lin,1,1,8,3,17,98,down,0.5,1.5,1.5,30,403.93516970798373,403.9422229998745,404.43237341591157,404.43237341591157,404.50528799998574,404.50528799998574,404.50528799998574,405.38499674992636,0,,,,,,,,,,,,,,,daniel,001,2025-08-18_18h22.17.637,tilt_staircase,2024.2.4,None,2025-08-18 18h22.38.209282 -0400,
,,,0,0,0,,,,,,,,,,,,,,,,,,0,0,0,0,405.3935903329402,,,,,,,,,,,,,,,,,,,,,,,,,,,,,,,,,,,,,,,,,,,,,,,,,,,,,,,,,,,,,,,,,,posc_negs,30,15,15,-15,"[5, 2, 1, 0.5]",lin,1,1,8,1,17,99,down,0.5,-3.5,-3.5,-30,405.38633654103614,405.3935903329402,405.8826287910342,405.8826287910342,405.95539395790547,405.95539395790547,405.95539395790547,406.75594824994914,0,,,,,,,,,,,,,,,daniel,001,2025-08-18_18h22.17.637,tilt_staircase,2024.2.4,None,2025-08-18 18h22.38.209282 -0400,
,,,0,0,0,,,,,,,,,,,,,,,,,,0,0,0,0,406.76465820800513,,,,,,,,,,,,,,,,,,,,,,,,,,,,,,,,,,,,,,,,,,,,,,,,,,,,,,,,,,,,,,,,,,negc_poss,30,-15,15,-15,"[5, 2, 1, 0.5]",lin,1,1,8,2,17,100,down,0.5,2.0,2.0,30,406.75696745794266,406.76465820800513,407.2572494579945,407.2572494579945,407.3325292910449,407.3325292910449,407.3325292910449,408.07118504098617,0,,,,,,,,,,,,,,,daniel,001,2025-08-18_18h22.17.637,tilt_staircase,2024.2.4,None,2025-08-18 18h22.38.209282 -0400,
,,,0,0,0,,,,,,,,,,,,,,,,,,0,0,0,0,408.0820783749223,,,,,,,,,,,,,,,,,,,,,,,,,,,,,,,,,,,,,,,,,,,,,,,,,,,,,,,,,,,,,,,,,,negc_negs,30,-15,15,-15,"[5, 2, 1, 0.5]",lin,1,1,8,0,17,101,down,0.5,-3.0,-3.0,-30,408.07220391603187,408.0820783749223,408.56479433295317,408.56479433295317,408.6379742908757,408.6379742908757,408.6492612499278,409.17236704099923,1,,,,,,,,,,,,,,,daniel,001,2025-08-18_18h22.17.637,tilt_staircase,2024.2.4,None,2025-08-18 18h22.38.209282 -0400,
,,,0,0,0,,,,,,,,,,,,,,,,,,0,0,0,0,409.181293415837,,,,,,,,,,,,,,,,,,,,,,,,,,,,,,,,,,,,,,,,,,,,,,,,,,,,,,,,,,,,,,,,,,posc_noss,30,15,15,-15,"[5, 2, 1, 0.5]",lin,1,1,8,5,18,102,down,0.5,0.0,0.0,,409.1733879998792,409.181293415837,409.6742746250238,409.6742746250238,409.74912879103795,409.74912879103795,409.74912879103795,410.48447862500325,1,,,,,,,,,,,,,,,daniel,001,2025-08-18_18h22.17.637,tilt_staircase,2024.2.4,None,2025-08-18 18h22.38.209282 -0400,
,,,0,0,0,,,,,,,,,,,,,,,,,,0,0,0,0,410.4928373750299,,,,,,,,,,,,,,,,,,,,,,,,,,,,,,,,,,,,,,,,,,,,,,,,,,,,,,,,,,,,,,,,,,posc_negs,30,15,15,-15,"[5, 2, 1, 0.5]",lin,1,1,8,1,18,103,up,0.5,-3.0,-3.0,-30,410.4855951659847,410.4928373750299,410.9813556659501,410.9813556659501,411.0544300409965,411.0544300409965,411.0544300409965,411.88832408282906,1,,,,,,,,,,,,,,,daniel,001,2025-08-18_18h22.17.637,tilt_staircase,2024.2.4,None,2025-08-18 18h22.38.209282 -0400,
,,,0,0,0,,,,,,,,,,,,,,,,,,0,0,0,0,411.8979956659023,,,,,,,,,,,,,,,,,,,,,,,,,,,,,,,,,,,,,,,,,,,,,,,,,,,,,,,,,,,,,,,,,,negc_poss,30,-15,15,-15,"[5, 2, 1, 0.5]",lin,1,1,8,2,18,104,up,0.5,2.5,2.5,30,411.88937654090114,411.8979956659023,412.3904177499935,412.3904177499935,412.465811957838,412.465811957838,412.465811957838,413.0549484998919,0,,,,,,,,,,,,,,,daniel,001,2025-08-18_18h22.17.637,tilt_staircase,2024.2.4,None,2025-08-18 18h22.38.209282 -0400,
,,,0,0,0,,,,,,,,,,,,,,,,,,0,0,0,0,413.06470554089174,,,,,,,,,,,,,,,,,,,,,,,,,,,,,,,,,,,,,,,,,,,,,,,,,,,,,,,,,,,,,,,,,,negc_negs,30,-15,15,-15,"[5, 2, 1, 0.5]",lin,1,1,8,0,18,105,down,0.5,-3.5,-3.5,-30,413.05830833292566,413.06470554089174,413.54932695790194,413.54932695790194,413.6221632498782,413.6221632498782,413.6326473329682,414.673500290839,0,,,,,,,,,,,,,,,daniel,001,2025-08-18_18h22.17.637,tilt_staircase,2024.2.4,None,2025-08-18 18h22.38.209282 -0400,
,,,0,0,0,,,,,,,,,,,,,,,,,,0,0,0,0,414.6826453329995,,,,,,,,,,,,,,,,,,,,,,,,,,,,,,,,,,,,,,,,,,,,,,,,,,,,,,,,,,,,,,,,,,posc_poss,30,15,15,-15,"[5, 2, 1, 0.5]",lin,1,1,8,3,18,106,up,0.5,2.0,2.0,30,414.6752384158317,414.6826453329995,415.1741080000065,415.1741080000065,415.24905116599984,415.24905116599984,415.24905116599984,415.850838040933,0,,,,,,,,,,,,,,,daniel,001,2025-08-18_18h22.17.637,tilt_staircase,2024.2.4,None,2025-08-18 18h22.38.209282 -0400,
,,,0,0,0,,,,,,,,,,,,,,,,,,0,0,0,0,415.8590790829621,,,,,,,,,,,,,,,,,,,,,,,,,,,,,,,,,,,,,,,,,,,,,,,,,,,,,,,,,,,,,,,,,,negc_noss,30,-15,15,-15,"[5, 2, 1, 0.5]",lin,1,1,8,4,18,107,down,0.5,-0.5,-0.5,,415.85185508290306,415.8590790829621,416.3491518748924,416.3491518748924,416.42172529082745,416.42172529082745,416.42172529082745,417.0339482498821,0,,,,,,,,,,,,,,,daniel,001,2025-08-18_18h22.17.637,tilt_staircase,2024.2.4,None,2025-08-18 18h22.38.209282 -0400,
,,,0,0,0,,,,,,,,,,,,,,,,,,0,0,0,0,417.04190170788206,,,,,,,,,,,,,,,,,,,,,,,,,,,,,,,,,,,,,,,,,,,,,,,,,,,,,,,,,,,,,,,,,,negc_poss,30,-15,15,-15,"[5, 2, 1, 0.5]",lin,1,1,8,2,19,108,up,0.5,3.0,3.0,30,417.0350194158964,417.04190170788206,417.5324244159274,417.5324244159274,417.6043054999318,417.6043054999318,417.6043054999318,418.15161670790985,0,,,,,,,,,,,,,,,daniel,001,2025-08-18_18h22.17.637,tilt_staircase,2024.2.4,None,2025-08-18 18h22.38.209282 -0400,
,,,0,0,0,,,,,,,,,,,,,,,,,,0,0,0,0,418.16169770783745,,,,,,,,,,,,,,,,,,,,,,,,,,,,,,,,,,,,,,,,,,,,,,,,,,,,,,,,,,,,,,,,,,negc_negs,30,-15,15,-15,"[5, 2, 1, 0.5]",lin,1,1,8,0,19,109,up,0.5,-3.0,-3.0,-30,418.153457790846,418.16169770783745,418.6486310409382,418.6486310409382,418.72206795797683,418.72206795797683,418.72206795797683,419.1345002078451,1,,,,,,,,,,,,,,,daniel,001,2025-08-18_18h22.17.637,tilt_staircase,2024.2.4,None,2025-08-18 18h22.38.209282 -0400,
,,,0,0,0,,,,,,,,,,,,,,,,,,0,0,0,0,419.1427385408897,,,,,,,,,,,,,,,,,,,,,,,,,,,,,,,,,,,,,,,,,,,,,,,,,,,,,,,,,,,,,,,,,,posc_poss,30,15,15,-15,"[5, 2, 1, 0.5]",lin,1,1,8,3,19,110,up,0.5,2.5,2.5,30,419.13608529092744,419.1427385408897,419.63239474990405,419.63239474990405,419.70554020791315,419.70554020791315,419.70554020791315,420.58661812497303,1,,,,,,,,,,,,,,,daniel,001,2025-08-18_18h22.17.637,tilt_staircase,2024.2.4,None,2025-08-18 18h22.38.209282 -0400,
,,,0,0,0,,,,,,,,,,,,,,,,,,0,0,0,0,420.5993044159841,,,,,,,,,,,,,,,,,,,,,,,,,,,,,,,,,,,,,,,,,,,,,,,,,,,,,,,,,,,,,,,,,,negc_noss,30,-15,15,-15,"[5, 2, 1, 0.5]",lin,1,1,8,4,19,111,up,0.5,0.0,0.0,,420.5877439158503,420.5993044159841,421.08132250001654,421.08132250001654,421.1560754580423,421.1560754580423,421.1560754580423,421.7505903749261,1,,,,,,,,,,,,,,,daniel,001,2025-08-18_18h22.17.637,tilt_staircase,2024.2.4,None,2025-08-18 18h22.38.209282 -0400,
,,,0,0,0,,,,,,,,,,,,,,,,,,0,0,0,0,421.75866049993783,,,,,,,,,,,,,,,,,,,,,,,,,,,,,,,,,,,,,,,,,,,,,,,,,,,,,,,,,,,,,,,,,,posc_negs,30,15,15,-15,"[5, 2, 1, 0.5]",lin,1,1,8,1,19,112,down,0.5,-3.5,-3.5,-30,421.7515691658482,421.75866049993783,422.2494825408794,422.2494825408794,422.32213233294897,422.32213233294897,422.32213233294897,422.95164970797487,1,,,,,,,,,,,,,,,daniel,001,2025-08-18_18h22.17.637,tilt_staircase,2024.2.4,None,2025-08-18 18h22.38.209282 -0400,
,,,0,0,0,,,,,,,,,,,,,,,,,,0,0,0,0,422.9599519998301,,,,,,,,,,,,,,,,,,,,,,,,,,,,,,,,,,,,,,,,,,,,,,,,,,,,,,,,,,,,,,,,,,posc_noss,30,15,15,-15,"[5, 2, 1, 0.5]",lin,1,1,8,5,19,113,down,0.5,-0.5,-0.5,,422.95287491590716,422.9599519998301,423.4489515409805,423.4489515409805,423.52231504092924,423.52231504092924,423.52231504092924,424.22158608282916,1,,,,,,,,,,,,,,,daniel,001,2025-08-18_18h22.17.637,tilt_staircase,2024.2.4,None,2025-08-18 18h22.38.209282 -0400,
,,,0,0,0,,,,,,,,,,,,,,,,,,0,0,0,0,424.23135841591284,,,,,,,,,,,,,,,,,,,,,,,,,,,,,,,,,,,,,,,,,,,,,,,,,,,,,,,,,,,,,,,,,,negc_poss,30,-15,15,-15,"[5, 2, 1, 0.5]",lin,1,1,8,2,20,114,up,0.5,3.5,3.5,30,424.2225899579935,424.23135841591284,424.71548474999145,424.71548474999145,424.7877909578383,424.7877909578383,424.79950129101053,425.7069402078632,0,,,,,,,,,,,,,,,daniel,001,2025-08-18_18h22.17.637,tilt_staircase,2024.2.4,None,2025-08-18 18h22.38.209282 -0400,
,,,0,0,0,,,,,,,,,,,,,,,,,,0,0,0,0,425.71505237487145,,,,,,,,,,,,,,,,,,,,,,,,,,,,,,,,,,,,,,,,,,,,,,,,,,,,,,,,,,,,,,,,,,posc_negs,30,15,15,-15,"[5, 2, 1, 0.5]",lin,1,1,8,1,20,115,down,0.5,-4.0,-4.0,-30,425.7082094999496,425.71505237487145,426.2075673749205,426.2075673749205,426.28243641601875,426.28243641601875,426.28243641601875,426.8502778329421,0,,,,,,,,,,,,,,,daniel,001,2025-08-18_18h22.17.637,tilt_staircase,2024.2.4,None,2025-08-18 18h22.38.209282 -0400,
,,,0,0,0,,,,,,,,,,,,,,,,,,0,0,0,0,426.8572449579369,,,,,,,,,,,,,,,,,,,,,,,,,,,,,,,,,,,,,,,,,,,,,,,,,,,,,,,,,,,,,,,,,,negc_negs,30,-15,15,-15,"[5, 2, 1, 0.5]",lin,1,1,8,0,20,116,down,0.5,-3.5,-3.5,-30,426.85098320804536,426.8572449579369,427.3492655828595,427.3492655828595,427.42011695797555,427.42011695797555,427.42011695797555,428.007102875039,1,,,,,,,,,,,,,,,daniel,001,2025-08-18_18h22.17.637,tilt_staircase,2024.2.4,None,2025-08-18 18h22.38.209282 -0400,
,,,0,0,0,,,,,,,,,,,,,,,,,,0,0,0,0,428.0156380829867,,,,,,,,,,,,,,,,,,,,,,,,,,,,,,,,,,,,,,,,,,,,,,,,,,,,,,,,,,,,,,,,,,posc_poss,30,15,15,-15,"[5, 2, 1, 0.5]",lin,1,1,8,3,20,117,down,0.5,2.0,2.0,30,428.0081660829019,428.0156380829867,428.50661804084666,428.50661804084666,428.5823870408349,428.5823870408349,428.5823870408349,429.4342371658422,0,,,,,,,,,,,,,,,daniel,001,2025-08-18_18h22.17.637,tilt_staircase,2024.2.4,None,2025-08-18 18h22.38.209282 -0400,
,,,0,0,0,,,,,,,,,,,,,,,,,,0,0,0,0,429.443219125038,,,,,,,,,,,,,,,,,,,,,,,,,,,,,,,,,,,,,,,,,,,,,,,,,,,,,,,,,,,,,,,,,,negc_noss,30,-15,15,-15,"[5, 2, 1, 0.5]",lin,1,1,8,4,20,118,down,0.5,-0.5,-0.5,,429.4353582910262,429.443219125038,429.9324216248933,429.9324216248933,430.0042436248623,430.0042436248623,430.0042436248623,431.0898733329959,0,,,,,,,,,,,,,,,daniel,001,2025-08-18_18h22.17.637,tilt_staircase,2024.2.4,None,2025-08-18 18h22.38.209282 -0400,
,,,0,0,0,,,,,,,,,,,,,,,,,,0,0,0,0,431.0980787498411,,,,,,,,,,,,,,,,,,,,,,,,,,,,,,,,,,,,,,,,,,,,,,,,,,,,,,,,,,,,,,,,,,posc_noss,30,15,15,-15,"[5, 2, 1, 0.5]",lin,1,1,8,5,20,119,down,0.5,-1.0,-1.0,,431.0911852908321,431.0980787498411,431.5901490410324,431.5901490410324,431.6657394578215,431.6657394578215,431.6657394578215,432.39972966583446,1,,,,,,,,,,,,,,,daniel,001,2025-08-18_18h22.17.637,tilt_staircase,2024.2.4,None,2025-08-18 18h22.38.209282 -0400,
,,,0,0,0,,,,,,,,,,,,,,,,,,0,0,0,0,432.40553595800884,,,,,,,,,,,,,,,,,,,,,,,,,,,,,,,,,,,,,,,,,,,,,,,,,,,,,,,,,,,,,,,,,,posc_poss,30,15,15,-15,"[5, 2, 1, 0.5]",lin,1,1,8,3,21,120,up,0.5,2.5,2.5,30,432.4003688329831,432.40553595800884,432.89789712498896,432.89789712498896,432.96850083302706,432.96850083302706,432.96850083302706,433.57094558281824,0,,,,,,,,,,,,,,,daniel,001,2025-08-18_18h22.17.637,tilt_staircase,2024.2.4,None,2025-08-18 18h22.38.209282 -0400,
,,,0,0,0,,,,,,,,,,,,,,,,,,0,0,0,0,433.58132358291186,,,,,,,,,,,,,,,,,,,,,,,,,,,,,,,,,,,,,,,,,,,,,,,,,,,,,,,,,,,,,,,,,,posc_negs,30,15,15,-15,"[5, 2, 1, 0.5]",lin,1,1,8,1,21,121,up,0.5,-3.5,-3.5,-30,433.57139024999924,433.58132358291186,434.06554866582155,434.06554866582155,434.1371145409066,434.1371145409066,434.14904587483034,434.75184116582386,0,,,,,,,,,,,,,,,daniel,001,2025-08-18_18h22.17.637,tilt_staircase,2024.2.4,None,2025-08-18 18h22.38.209282 -0400,
,,,0,0,0,,,,,,,,,,,,,,,,,,0,0,0,0,434.76014266582206,,,,,,,,,,,,,,,,,,,,,,,,,,,,,,,,,,,,,,,,,,,,,,,,,,,,,,,,,,,,,,,,,,posc_noss,30,15,15,-15,"[5, 2, 1, 0.5]",lin,1,1,8,5,21,122,down,0.5,-1.5,-1.5,,434.7529714158736,434.76014266582206,435.2490528328344,435.2490528328344,435.3217174578458,435.3217174578458,435.3217174578458,436.05649716593325,0,,,,,,,,,,,,,,,daniel,001,2025-08-18_18h22.17.637,tilt_staircase,2024.2.4,None,2025-08-18 18h22.38.209282 -0400,
,,,0,0,0,,,,,,,,,,,,,,,,,,0,0,0,0,436.06442870781757,,,,,,,,,,,,,,,,,,,,,,,,,,,,,,,,,,,,,,,,,,,,,,,,,,,,,,,,,,,,,,,,,,negc_noss,30,-15,15,-15,"[5, 2, 1, 0.5]",lin,1,1,8,4,21,123,up,0.5,0.0,0.0,,436.0575385829434,436.06442870781757,436.5575259998441,436.5575259998441,436.6323600828182,436.6323600828182,436.6323600828182,437.3170502909925,0,,,,,,,,,,,,,,,daniel,001,2025-08-18_18h22.17.637,tilt_staircase,2024.2.4,None,2025-08-18 18h22.38.209282 -0400,
,,,0,0,0,,,,,,,,,,,,,,,,,,0,0,0,0,437.32425787486136,,,,,,,,,,,,,,,,,,,,,,,,,,,,,,,,,,,,,,,,,,,,,,,,,,,,,,,,,,,,,,,,,,negc_negs,30,-15,15,-15,"[5, 2, 1, 0.5]",lin,1,1,8,0,21,124,down,0.5,-4.0,-4.0,-30,437.3181944999378,437.32425787486136,437.8157158328686,437.8157158328686,437.8885335410014,437.8885335410014,437.8885335410014,438.30059091583826,1,,,,,,,,,,,,,,,daniel,001,2025-08-18_18h22.17.637,tilt_staircase,2024.2.4,None,2025-08-18 18h22.38.209282 -0400,
,,,0,0,0,,,,,,,,,,,,,,,,,,0,0,0,0,438.30899337492883,,,,,,,,,,,,,,,,,,,,,,,,,,,,,,,,,,,,,,,,,,,,,,,,,,,,,,,,,,,,,,,,,,negc_poss,30,-15,15,-15,"[5, 2, 1, 0.5]",lin,1,1,8,2,21,125,up,0.5,4.0,4.0,30,438.30183849995956,438.30899337492883,438.7989252079278,438.7989252079278,438.871802915819,438.871802915819,438.871802915819,439.7845443750266,0,,,,,,,,,,,,,,,daniel,001,2025-08-18_18h22.17.637,tilt_staircase,2024.2.4,None,2025-08-18 18h22.38.209282 -0400,
,,,0,0,0,,,,,,,,,,,,,,,,,,0,0,0,0,439.79292904096656,,,,,,,,,,,,,,,,,,,,,,,,,,,,,,,,,,,,,,,,,,,,,,,,,,,,,,,,,,,,,,,,,,negc_noss,30,-15,15,-15,"[5, 2, 1, 0.5]",lin,1,1,8,4,22,126,up,0.5,0.5,0.5,,439.7859258749522,439.79292904096656,440.28203087486327,440.28203087486327,440.35545566584915,440.35545566584915,440.35545566584915,441.40114824986085,1,,,,,,,,,,,,,,,daniel,001,2025-08-18_18h22.17.637,tilt_staircase,2024.2.4,None,2025-08-18 18h22.38.209282 -0400,
,,,0,0,0,,,,,,,,,,,,,,,,,,0,0,0,0,441.40923470794223,,,,,,,,,,,,,,,,,,,,,,,,,,,,,,,,,,,,,,,,,,,,,,,,,,,,,,,,,,,,,,,,,,posc_noss,30,15,15,-15,"[5, 2, 1, 0.5]",lin,1,1,8,5,22,127,up,0.5,-1.0,-1.0,,441.40222491603345,441.40923470794223,441.89795833290555,441.89795833290555,441.97255362500437,441.97255362500437,441.97255362500437,442.5841113750357,0,,,,,,,,,,,,,,,daniel,001,2025-08-18_18h22.17.637,tilt_staircase,2024.2.4,None,2025-08-18 18h22.38.209282 -0400,
,,,0,0,0,,,,,,,,,,,,,,,,,,0,0,0,0,442.5919190829154,,,,,,,,,,,,,,,,,,,,,,,,,,,,,,,,,,,,,,,,,,,,,,,,,,,,,,,,,,,,,,,,,,negc_negs,30,-15,15,-15,"[5, 2, 1, 0.5]",lin,1,1,8,0,22,128,down,0.5,-4.5,-4.5,-30,442.5851028750185,442.5919190829154,443.08135925000533,443.08135925000533,443.1555287078954,443.1555287078954,443.1555287078954,443.7677620409522,0,,,,,,,,,,,,,,,daniel,001,2025-08-18_18h22.17.637,tilt_staircase,2024.2.4,None,2025-08-18 18h22.38.209282 -0400,
,,,0,0,0,,,,,,,,,,,,,,,,,,0,0,0,0,443.7763461249415,,,,,,,,,,,,,,,,,,,,,,,,,,,,,,,,,,,,,,,,,,,,,,,,,,,,,,,,,,,,,,,,,,posc_poss,30,15,15,-15,"[5, 2, 1, 0.5]",lin,1,1,8,3,22,129,up,0.5,3.0,3.0,30,443.7692676659208,443.7763461249415,444.2657239160035,444.2657239160035,444.33798441593535,444.33798441593535,444.33798441593535,445.5344051248394,0,,,,,,,,,,,,,,,daniel,001,2025-08-18_18h22.17.637,tilt_staircase,2024.2.4,None,2025-08-18 18h22.38.209282 -0400,
,,,0,0,0,,,,,,,,,,,,,,,,,,0,0,0,0,445.54285145783797,,,,,,,,,,,,,,,,,,,,,,,,,,,,,,,,,,,,,,,,,,,,,,,,,,,,,,,,,,,,,,,,,,negc_poss,30,-15,15,-15,"[5, 2, 1, 0.5]",lin,1,1,8,2,22,130,up,0.5,4.5,4.5,30,445.5357095829677,445.54285145783797,446.0322887080256,446.0322887080256,446.1058547908906,446.1058547908906,446.1058547908906,446.6072315829806,1,,,,,,,,,,,,,,,daniel,001,2025-08-18_18h22.17.637,tilt_staircase,2024.2.4,None,2025-08-18 18h22.38.209282 -0400,
,,,0,0,0,,,,,,,,,,,,,,,,,,0,0,0,0,446.61553129088134,,,,,,,,,,,,,,,,,,,,,,,,,,,,,,,,,,,,,,,,,,,,,,,,,,,,,,,,,,,,,,,,,,posc_negs,30,15,15,-15,"[5, 2, 1, 0.5]",lin,1,1,8,1,22,131,up,0.5,-3.0,-3.0,-30,446.60852616582997,446.61553129088134,447.10721966600977,447.10721966600977,447.18226949987,447.18226949987,447.18226949987,447.8507438749075,1,,,,,,,,,,,,,,,daniel,001,2025-08-18_18h22.17.637,tilt_staircase,2024.2.4,None,2025-08-18 18h22.38.209282 -0400,
,,,0,0,0,,,,,,,,,,,,,,,,,,0,0,0,0,447.85879554087296,,,,,,,,,,,,,,,,,,,,,,,,,,,,,,,,,,,,,,,,,,,,,,,,,,,,,,,,,,,,,,,,,,posc_negs,30,15,15,-15,"[5, 2, 1, 0.5]",lin,1,1,8,1,23,132,down,0.5,-3.5,-3.5,-30,447.85199550003745,447.85879554087296,448.3480718329083,448.3480718329083,448.42193270800635,448.42193270800635,448.42193270800635,449.0060681658797,0,,,,,,,,,,,,,,,daniel,001,2025-08-18_18h22.17.637,tilt_staircase,2024.2.4,None,2025-08-18 18h22.38.209282 -0400,
,,,0,0,0,,,,,,,,,,,,,,,,,,0,0,0,0,449.014589499915,,,,,,,,,,,,,,,,,,,,,,,,,,,,,,,,,,,,,,,,,,,,,,,,,,,,,,,,,,,,,,,,,,negc_noss,30,-15,15,-15,"[5, 2, 1, 0.5]",lin,1,1,8,4,23,133,down,0.5,0.0,0.0,,449.00704020797275,449.014589499915,449.49804987502284,449.49804987502284,449.57043212489225,449.57043212489225,449.582554457942,450.20634129084647,1,,,,,,,,,,,,,,,daniel,001,2025-08-18_18h22.17.637,tilt_staircase,2024.2.4,None,2025-08-18 18h22.38.209282 -0400,
,,,0,0,0,,,,,,,,,,,,,,,,,,0,0,0,0,450.21498737484217,,,,,,,,,,,,,,,,,,,,,,,,,,,,,,,,,,,,,,,,,,,,,,,,,,,,,,,,,,,,,,,,,,negc_negs,30,-15,15,-15,"[5, 2, 1, 0.5]",lin,1,1,8,0,23,134,up,0.5,-4.0,-4.0,-30,450.20774224982597,450.21498737484217,450.707793665817,450.707793665817,450.782248375006,450.782248375006,450.782248375006,451.4013778329827,0,,,,,,,,,,,,,,,daniel,001,2025-08-18_18h22.17.637,tilt_staircase,2024.2.4,None,2025-08-18 18h22.38.209282 -0400,
,,,0,0,0,,,,,,,,,,,,,,,,,,0,0,0,0,451.41008345782757,,,,,,,,,,,,,,,,,,,,,,,,,,,,,,,,,,,,,,,,,,,,,,,,,,,,,,,,,,,,,,,,,,negc_poss,30,-15,15,-15,"[5, 2, 1, 0.5]",lin,1,1,8,2,23,135,down,0.5,4.0,4.0,30,451.4031704158988,451.41008345782757,451.8990998750087,451.8990998750087,451.97105512488633,451.97105512488633,451.97105512488633,452.6348300408572,0,,,,,,,,,,,,,,,daniel,001,2025-08-18_18h22.17.637,tilt_staircase,2024.2.4,None,2025-08-18 18h22.38.209282 -0400,
,,,0,0,0,,,,,,,,,,,,,,,,,,0,0,0,0,452.64322758303024,,,,,,,,,,,,,,,,,,,,,,,,,,,,,,,,,,,,,,,,,,,,,,,,,,,,,,,,,,,,,,,,,,posc_poss,30,15,15,-15,"[5, 2, 1, 0.5]",lin,1,1,8,3,23,136,up,0.5,3.5,3.5,30,452.6362615409307,452.64322758303024,453.13243591599166,453.13243591599166,453.2053189580329,453.2053189580329,453.2053189580329,453.8345998330042,1,,,,,,,,,,,,,,,daniel,001,2025-08-18_18h22.17.637,tilt_staircase,2024.2.4,None,2025-08-18 18h22.38.209282 -0400,
,,,0,0,0,,,,,,,,,,,,,,,,,,0,0,0,0,453.8426477080211,,,,,,,,,,,,,,,,,,,,,,,,,,,,,,,,,,,,,,,,,,,,,,,,,,,,,,,,,,,,,,,,,,posc_noss,30,15,15,-15,"[5, 2, 1, 0.5]",lin,1,1,8,5,23,137,up,0.5,-0.5,-0.5,,453.83586170803756,453.8426477080211,454.3323349999264,454.3323349999264,454.4054343330208,454.4054343330208,454.4054343330208,455.0066676659044,0,,,,,,,,,,,,,,,daniel,001,2025-08-18_18h22.17.637,tilt_staircase,2024.2.4,None,2025-08-18 18h22.38.209282 -0400,
,,,0,0,0,,,,,,,,,,,,,,,,,,0,0,0,0,455.01461183303036,,,,,,,,,,,,,,,,,,,,,,,,,,,,,,,,,,,,,,,,,,,,,,,,,,,,,,,,,,,,,,,,,,negc_poss,30,-15,15,-15,"[5, 2, 1, 0.5]",lin,1,1,8,2,24,138,up,0.5,4.5,4.5,30,455.0077207079157,455.01461183303036,455.5073924160097,455.5073924160097,455.5813081660308,455.5813081660308,455.5813081660308,456.3171487909276,1,,,,,,,,,,,,,,,daniel,001,2025-08-18_18h22.17.637,tilt_staircase,2024.2.4,None,2025-08-18 18h22.38.209282 -0400,
,,,0,0,0,,,,,,,,,,,,,,,,,,0,0,0,0,456.324642874999,,,,,,,,,,,,,,,,,,,,,,,,,,,,,,,,,,,,,,,,,,,,,,,,,,,,,,,,,,,,,,,,,,negc_negs,30,-15,15,-15,"[5, 2, 1, 0.5]",lin,1,1,8,0,24,139,up,0.5,-3.5,-3.5,-30,456.3180925408378,456.324642874999,456.81564991595224,456.81564991595224,456.88828054093756,456.88828054093756,456.88828054093756,457.5714507079683,0,,,,,,,,,,,,,,,daniel,001,2025-08-18_18h22.17.637,tilt_staircase,2024.2.4,None,2025-08-18 18h22.38.209282 -0400,
,,,0,0,0,,,,,,,,,,,,,,,,,,0,0,0,0,457.58131187502295,,,,,,,,,,,,,,,,,,,,,,,,,,,,,,,,,,,,,,,,,,,,,,,,,,,,,,,,,,,,,,,,,,posc_noss,30,15,15,-15,"[5, 2, 1, 0.5]",lin,1,1,8,5,24,140,up,0.5,0.0,0.0,,457.57244912488386,457.58131187502295,458.0716547910124,458.0716547910124,458.14807683299296,458.14807683299296,458.14807683299296,458.85155920800753,0,,,,,,,,,,,,,,,daniel,001,2025-08-18_18h22.17.637,tilt_staircase,2024.2.4,None,2025-08-18 18h22.38.209282 -0400,
,,,0,0,0,,,,,,,,,,,,,,,,,,0,0,0,0,458.86075845803134,,,,,,,,,,,,,,,,,,,,,,,,,,,,,,,,,,,,,,,,,,,,,,,,,,,,,,,,,,,,,,,,,,posc_poss,30,15,15,-15,"[5, 2, 1, 0.5]",lin,1,1,8,3,24,141,down,0.5,3.0,3.0,30,458.8533137908671,458.86075845803134,459.3483931249939,459.3483931249939,459.4224407079164,459.4224407079164,459.4224407079164,460.3840092078317,1,,,,,,,,,,,,,,,daniel,001,2025-08-18_18h22.17.637,tilt_staircase,2024.2.4,None,2025-08-18 18h22.38.209282 -0400,
,,,0,0,0,,,,,,,,,,,,,,,,,,0,0,0,0,460.3921728329733,,,,,,,,,,,,,,,,,,,,,,,,,,,,,,,,,,,,,,,,,,,,,,,,,,,,,,,,,,,,,,,,,,negc_noss,30,-15,15,-15,"[5, 2, 1, 0.5]",lin,1,1,8,4,24,142,down,0.5,-0.5,-0.5,,460.3850996249821,460.3921728329733,460.8817626249511,460.8817626249511,460.955226165941,460.955226165941,460.955226165941,461.8708231248893,0,,,,,,,,,,,,,,,daniel,001,2025-08-18_18h22.17.637,tilt_staircase,2024.2.4,None,2025-08-18 18h22.38.209282 -0400,
,,,0,0,0,,,,,,,,,,,,,,,,,,0,0,0,0,461.8815121250227,,,,,,,,,,,,,,,,,,,,,,,,,,,,,,,,,,,,,,,,,,,,,,,,,,,,,,,,,,,,,,,,,,posc_negs,30,15,15,-15,"[5, 2, 1, 0.5]",lin,1,1,8,1,24,143,up,0.5,-3.0,-3.0,-30,461.8719029999338,461.8815121250227,462.36516158282757,462.36516158282757,462.43735554092564,462.43735554092564,462.44903633301146,463.0735023750458,0,,,,,,,,,,,,,,,daniel,001,2025-08-18_18h22.17.637,tilt_staircase,2024.2.4,None,2025-08-18 18h22.38.209282 -0400,
,,,0,0,0,,,,,,,,,,,,,,,,,,0,0,0,0,463.0819239579141,,,,,,,,,,,,,,,,,,,,,,,,,,,,,,,,,,,,,,,,,,,,,,,,,,,,,,,,,,,,,,,,,,negc_noss,30,-15,15,-15,"[5, 2, 1, 0.5]",lin,1,1,8,4,25,144,up,0.5,0.0,0.0,,463.0748487499077,463.0819239579141,463.5742606248241,463.5742606248241,463.6489253328182,463.6489253328182,463.6489253328182,464.1228261250071,1,,,,,,,,,,,,,,,daniel,001,2025-08-18_18h22.17.637,tilt_staircase,2024.2.4,None,2025-08-18 18h22.38.209282 -0400,
,,,0,0,0,,,,,,,,,,,,,,,,,,0,0,0,0,464.1311235828325,,,,,,,,,,,,,,,,,,,,,,,,,,,,,,,,,,,,,,,,,,,,,,,,,,,,,,,,,,,,,,,,,,posc_negs,30,15,15,-15,"[5, 2, 1, 0.5]",lin,1,1,8,1,25,145,up,0.5,-2.5,-2.5,-30,464.1244636250194,464.1311235828325,464.62373383296654,464.62373383296654,464.6991309579462,464.6991309579462,464.6991309579462,465.4233996658586,1,,,,,,,,,,,,,,,daniel,001,2025-08-18_18h22.17.637,tilt_staircase,2024.2.4,None,2025-08-18 18h22.38.209282 -0400,
,,,0,0,0,,,,,,,,,,,,,,,,,,0,0,0,0,465.4316424578428,,,,,,,,,,,,,,,,,,,,,,,,,,,,,,,,,,,,,,,,,,,,,,,,,,,,,,,,,,,,,,,,,,posc_poss,30,15,15,-15,"[5, 2, 1, 0.5]",lin,1,1,8,3,25,146,down,0.5,2.5,2.5,30,465.4248770000413,465.4316424578428,465.92405000003055,465.92405000003055,465.9988854159601,465.9988854159601,465.9988854159601,466.53854904090986,0,,,,,,,,,,,,,,,daniel,001,2025-08-18_18h22.17.637,tilt_staircase,2024.2.4,None,2025-08-18 18h22.38.209282 -0400,
,,,0,0,0,,,,,,,,,,,,,,,,,,0,0,0,0,466.54776412504725,,,,,,,,,,,,,,,,,,,,,,,,,,,,,,,,,,,,,,,,,,,,,,,,,,,,,,,,,,,,,,,,,,posc_noss,30,15,15,-15,"[5, 2, 1, 0.5]",lin,1,1,8,5,25,147,up,0.5,0.5,0.5,,466.53956716600806,466.54776412504725,467.040806457866,467.040806457866,467.11572333285585,467.11572333285585,467.11572333285585,467.75021949992515,1,,,,,,,,,,,,,,,daniel,001,2025-08-18_18h22.17.637,tilt_staircase,2024.2.4,None,2025-08-18 18h22.38.209282 -0400,
,,,0,0,0,,,,,,,,,,,,,,,,,,0,0,0,0,467.7573984579649,,,,,,,,,,,,,,,,,,,,,,,,,,,,,,,,,,,,,,,,,,,,,,,,,,,,,,,,,,,,,,,,,,negc_poss,30,-15,15,-15,"[5, 2, 1, 0.5]",lin,1,1,8,2,25,148,down,0.5,4.0,4.0,30,467.75120341591537,467.7573984579649,468.2489352079574,468.2489352079574,468.32134170783684,468.32134170783684,468.32134170783684,469.3013034998439,0,,,,,,,,,,,,,,,daniel,001,2025-08-18_18h22.17.637,tilt_staircase,2024.2.4,None,2025-08-18 18h22.38.209282 -0400,
,,,0,0,0,,,,,,,,,,,,,,,,,,0,0,0,0,469.3074894580059,,,,,,,,,,,,,,,,,,,,,,,,,,,,,,,,,,,,,,,,,,,,,,,,,,,,,,,,,,,,,,,,,,negc_negs,30,-15,15,-15,"[5, 2, 1, 0.5]",lin,1,1,8,0,25,149,up,0.5,-3.0,-3.0,-30,469.30237320787273,469.3074894580059,469.7979865409434,469.7979865409434,469.87179670785554,469.87179670785554,469.87179670785554,470.60041341604665,1,,,,,,,,,,,,,,,daniel,001,2025-08-18_18h22.17.637,tilt_staircase,2024.2.4,None,2025-08-18 18h22.38.209282 -0400,
,,,1,0,1,,,,,,,,,,,,,,,,,,1,0,1,0,496.95417062495835,,,,,,,,,,,,,,,,,,,,,,,,,,,,,,,,,,,,,,,,,,,,,,,,,,,,,,,,,,,,,,,,,,posc_poss,30,15,15,-15,"[5, 2, 1, 0.5]",lin,1,1,8,3,1,0,start,5,15,15,30,496.94459537486546,496.95417062495835,497.42368000000715,497.42368000000715,497.49872004101053,497.49872004101053,497.49872004101053,497.9893719579559,1,470.60057200002484,470.6097428749781,470.6097428749781,496.9237321659457,space,26.308166916947812,None,,,,,,,,daniel,001,2025-08-18_18h22.17.637,tilt_staircase,2024.2.4,None,2025-08-18 18h22.38.209282 -0400,
,,,1,0,1,,,,,,,,,,,,,,,,,,1,0,1,0,497.9979441249743,,,,,,,,,,,,,,,,,,,,,,,,,,,,,,,,,,,,,,,,,,,,,,,,,,,,,,,,,,,,,,,,,,negc_poss,30,-15,15,-15,"[5, 2, 1, 0.5]",lin,1,1,8,2,1,1,start,5,-15,-15,30,497.9904232909903,497.9979441249743,498.4906249579508,498.4906249579508,498.56548608304,498.56548608304,498.56548608304,498.9669384579174,0,,,,,,,,,,,,,,,daniel,001,2025-08-18_18h22.17.637,tilt_staircase,2024.2.4,None,2025-08-18 18h22.38.209282 -0400,
,,,1,0,1,,,,,,,,,,,,,,,,,,1,0,1,0,498.97488166601397,,,,,,,,,,,,,,,,,,,,,,,,,,,,,,,,,,,,,,,,,,,,,,,,,,,,,,,,,,,,,,,,,,negc_noss,30,-15,15,-15,"[5, 2, 1, 0.5]",lin,1,1,8,4,1,2,start,5,-15,-15,,498.9681793330237,498.97488166601397,499.4655180410482,499.4655180410482,499.53792908298783,499.53792908298783,499.53792908298783,499.93994637485594,0,,,,,,,,,,,,,,,daniel,001,2025-08-18_18h22.17.637,tilt_staircase,2024.2.4,None,2025-08-18 18h22.38.209282 -0400,
,,,1,0,1,,,,,,,,,,,,,,,,,,1,0,1,0,499.9481727909297,,,,,,,,,,,,,,,,,,,,,,,,,,,,,,,,,,,,,,,,,,,,,,,,,,,,,,,,,,,,,,,,,,negc_negs,30,-15,15,-15,"[5, 2, 1, 0.5]",lin,1,1,8,0,1,3,start,5,-15,-15,-30,499.94114108290523,499.9481727909297,500.4411884578876,500.4411884578876,500.515416665934,500.515416665934,500.515416665934,501.0043369999621,0,,,,,,,,,,,,,,,daniel,001,2025-08-18_18h22.17.637,tilt_staircase,2024.2.4,None,2025-08-18 18h22.38.209282 -0400,
,,,1,0,1,,,,,,,,,,,,,,,,,,1,0,1,0,501.01525625004433,,,,,,,,,,,,,,,,,,,,,,,,,,,,,,,,,,,,,,,,,,,,,,,,,,,,,,,,,,,,,,,,,,posc_negs,30,15,15,-15,"[5, 2, 1, 0.5]",lin,1,1,8,1,1,4,start,5,15,15,-30,501.0052922498435,501.01525625004433,501.49820566596463,501.49820566596463,501.57011779095046,501.57011779095046,501.5821774159558,501.9677071659826,1,,,,,,,,,,,,,,,daniel,001,2025-08-18_18h22.17.637,tilt_staircase,2024.2.4,None,2025-08-18 18h22.38.209282 -0400,
,,,1,0,1,,,,,,,,,,,,,,,,,,1,0,1,0,501.9765792910475,,,,,,,,,,,,,,,,,,,,,,,,,,,,,,,,,,,,,,,,,,,,,,,,,,,,,,,,,,,,,,,,,,posc_noss,30,15,15,-15,"[5, 2, 1, 0.5]",lin,1,1,8,5,1,5,start,5,15,15,,501.9693691658322,501.9765792910475,502.4644236660097,502.4644236660097,502.53845158289187,502.53845158289187,502.53845158289187,502.96803037496284,1,,,,,,,,,,,,,,,daniel,001,2025-08-18_18h22.17.637,tilt_staircase,2024.2.4,None,2025-08-18 18h22.38.209282 -0400,
,,,1,0,1,,,,,,,,,,,,,,,,,,1,0,1,0,502.97602137504146,,,,,,,,,,,,,,,,,,,,,,,,,,,,,,,,,,,,,,,,,,,,,,,,,,,,,,,,,,,,,,,,,,negc_negs,30,-15,15,-15,"[5, 2, 1, 0.5]",lin,1,1,8,0,2,6,up,5,-10,-10,-30,502.9692496249918,502.97602137504146,503.46546620782465,503.46546620782465,503.53851691586897,503.53851691586897,503.53851691586897,503.97264945786446,0,,,,,,,,,,,,,,,daniel,001,2025-08-18_18h22.17.637,tilt_staircase,2024.2.4,None,2025-08-18 18h22.38.209282 -0400,
,,,1,0,1,,,,,,,,,,,,,,,,,,1,0,1,0,503.9811470408458,,,,,,,,,,,,,,,,,,,,,,,,,,,,,,,,,,,,,,,,,,,,,,,,,,,,,,,,,,,,,,,,,,posc_negs,30,15,15,-15,"[5, 2, 1, 0.5]",lin,1,1,8,1,2,7,down,5,10,10,-30,503.9736292909365,503.9811470408458,504.47415608284064,504.47415608284064,504.54914679098874,504.54914679098874,504.54914679098874,504.96754695801064,1,,,,,,,,,,,,,,,daniel,001,2025-08-18_18h22.17.637,tilt_staircase,2024.2.4,None,2025-08-18 18h22.38.209282 -0400,
,,,1,0,1,,,,,,,,,,,,,,,,,,1,0,1,0,504.9759712498635,,,,,,,,,,,,,,,,,,,,,,,,,,,,,,,,,,,,,,,,,,,,,,,,,,,,,,,,,,,,,,,,,,posc_poss,30,15,15,-15,"[5, 2, 1, 0.5]",lin,1,1,8,3,2,8,down,5,10,10,30,504.96906845783815,504.9759712498635,505.46501195803285,505.46501195803285,505.53859349992126,505.53859349992126,505.53859349992126,506.0011028328445,1,,,,,,,,,,,,,,,daniel,001,2025-08-18_18h22.17.637,tilt_staircase,2024.2.4,None,2025-08-18 18h22.38.209282 -0400,
,,,1,0,1,,,,,,,,,,,,,,,,,,1,0,1,0,506.0085595829878,,,,,,,,,,,,,,,,,,,,,,,,,,,,,,,,,,,,,,,,,,,,,,,,,,,,,,,,,,,,,,,,,,negc_noss,30,-15,15,-15,"[5, 2, 1, 0.5]",lin,1,1,8,4,2,9,up,5,-10,-10,,506.0021159159951,506.0085595829878,506.49892612500116,506.49892612500116,506.5718593748752,506.5718593748752,506.5718593748752,506.9343263749033,0,,,,,,,,,,,,,,,daniel,001,2025-08-18_18h22.17.637,tilt_staircase,2024.2.4,None,2025-08-18 18h22.38.209282 -0400,
,,,1,0,1,,,,,,,,,,,,,,,,,,1,0,1,0,506.94226733292453,,,,,,,,,,,,,,,,,,,,,,,,,,,,,,,,,,,,,,,,,,,,,,,,,,,,,,,,,,,,,,,,,,posc_noss,30,15,15,-15,"[5, 2, 1, 0.5]",lin,1,1,8,5,2,10,down,5,10,10,,506.93570037488826,506.94226733292453,507.4314155408647,507.4314155408647,507.5055586658418,507.5055586658418,507.5055586658418,507.86780774989165,1,,,,,,,,,,,,,,,daniel,001,2025-08-18_18h22.17.637,tilt_staircase,2024.2.4,None,2025-08-18 18h22.38.209282 -0400,
,,,1,0,1,,,,,,,,,,,,,,,,,,1,0,1,0,507.8759508749936,,,,,,,,,,,,,,,,,,,,,,,,,,,,,,,,,,,,,,,,,,,,,,,,,,,,,,,,,,,,,,,,,,negc_poss,30,-15,15,-15,"[5, 2, 1, 0.5]",lin,1,1,8,2,2,11,up,5,-10,-10,30,507.8692316659726,507.8759508749936,508.36576945800334,508.36576945800334,508.43832395784557,508.43832395784557,508.43832395784557,508.8342612909619,0,,,,,,,,,,,,,,,daniel,001,2025-08-18_18h22.17.637,tilt_staircase,2024.2.4,None,2025-08-18 18h22.38.209282 -0400,
,,,1,0,1,,,,,,,,,,,,,,,,,,1,0,1,0,508.8435204999987,,,,,,,,,,,,,,,,,,,,,,,,,,,,,,,,,,,,,,,,,,,,,,,,,,,,,,,,,,,,,,,,,,negc_noss,30,-15,15,-15,"[5, 2, 1, 0.5]",lin,1,1,8,4,3,12,up,5,-5,-5,,508.8366818749346,508.8435204999987,509.3322453328874,509.3322453328874,509.40562141593546,509.40562141593546,509.40562141593546,509.86800991604105,0,,,,,,,,,,,,,,,daniel,001,2025-08-18_18h22.17.637,tilt_staircase,2024.2.4,None,2025-08-18 18h22.38.209282 -0400,
,,,1,0,1,,,,,,,,,,,,,,,,,,1,0,1,0,509.8759212079458,,,,,,,,,,,,,,,,,,,,,,,,,,,,,,,,,,,,,,,,,,,,,,,,,,,,,,,,,,,,,,,,,,negc_poss,30,-15,15,-15,"[5, 2, 1, 0.5]",lin,1,1,8,2,3,13,up,5,-5,-5,30,509.86911487486213,509.8759212079458,510.3653369159438,510.3653369159438,510.4387929998338,510.4387929998338,510.4387929998338,510.93374624988064,0,,,,,,,,,,,,,,,daniel,001,2025-08-18_18h22.17.637,tilt_staircase,2024.2.4,None,2025-08-18 18h22.38.209282 -0400,
,,,1,0,1,,,,,,,,,,,,,,,,,,1,0,1,0,510.9417861660477,,,,,,,,,,,,,,,,,,,,,,,,,,,,,,,,,,,,,,,,,,,,,,,,,,,,,,,,,,,,,,,,,,posc_poss,30,15,15,-15,"[5, 2, 1, 0.5]",lin,1,1,8,3,3,14,down,5,5,5,30,510.93475770787336,510.9417861660477,511.4310905409511,511.4310905409511,511.5052524160128,511.5052524160128,511.5052524160128,511.95349733298644,1,,,,,,,,,,,,,,,daniel,001,2025-08-18_18h22.17.637,tilt_staircase,2024.2.4,None,2025-08-18 18h22.38.209282 -0400,
,,,1,0,1,,,,,,,,,,,,,,,,,,1,0,1,0,511.96549229091033,,,,,,,,,,,,,,,,,,,,,,,,,,,,,,,,,,,,,,,,,,,,,,,,,,,,,,,,,,,,,,,,,,posc_negs,30,15,15,-15,"[5, 2, 1, 0.5]",lin,1,1,8,1,3,15,down,5,5,5,-30,511.954455625033,511.96549229091033,512.4489262909628,512.4489262909628,512.5202428328339,512.5202428328339,512.5322043329943,512.8710797079839,1,,,,,,,,,,,,,,,daniel,001,2025-08-18_18h22.17.637,tilt_staircase,2024.2.4,None,2025-08-18 18h22.38.209282 -0400,
,,,1,0,1,,,,,,,,,,,,,,,,,,1,0,1,0,512.8814682499506,,,,,,,,,,,,,,,,,,,,,,,,,,,,,,,,,,,,,,,,,,,,,,,,,,,,,,,,,,,,,,,,,,posc_noss,30,15,15,-15,"[5, 2, 1, 0.5]",lin,1,1,8,5,3,16,down,5,5,5,,512.8720304160379,512.8814682499506,513.3645764999092,513.3645764999092,513.4374073748477,513.4374073748477,513.449000790948,513.8010533750057,1,,,,,,,,,,,,,,,daniel,001,2025-08-18_18h22.17.637,tilt_staircase,2024.2.4,None,2025-08-18 18h22.38.209282 -0400,
,,,1,0,1,,,,,,,,,,,,,,,,,,1,0,1,0,513.8087747078389,,,,,,,,,,,,,,,,,,,,,,,,,,,,,,,,,,,,,,,,,,,,,,,,,,,,,,,,,,,,,,,,,,negc_negs,30,-15,15,-15,"[5, 2, 1, 0.5]",lin,1,1,8,0,3,17,up,5,-5,-5,-30,513.802067915909,513.8087747078389,514.2989215408452,514.2989215408452,514.3722536659334,514.3722536659334,514.3722536659334,514.9346977078822,0,,,,,,,,,,,,,,,daniel,001,2025-08-18_18h22.17.637,tilt_staircase,2024.2.4,None,2025-08-18 18h22.38.209282 -0400,
,,,1,0,1,,,,,,,,,,,,,,,,,,1,0,1,0,514.9428358748555,,,,,,,,,,,,,,,,,,,,,,,,,,,,,,,,,,,,,,,,,,,,,,,,,,,,,,,,,,,,,,,,,,posc_negs,30,15,15,-15,"[5, 2, 1, 0.5]",lin,1,1,8,1,4,18,down,5,0,0,-30,514.9362458749674,514.9428358748555,515.4412020000163,515.4412020000163,515.5154762079474,515.5154762079474,515.5056783328764,515.9542278328445,1,,,,,,,,,,,,,,,daniel,001,2025-08-18_18h22.17.637,tilt_staircase,2024.2.4,None,2025-08-18 18h22.38.209282 -0400,
,,,1,0,1,,,,,,,,,,,,,,,,,,1,0,1,0,515.9644531249069,,,,,,,,,,,,,,,,,,,,,,,,,,,,,,,,,,,,,,,,,,,,,,,,,,,,,,,,,,,,,,,,,,negc_noss,30,-15,15,-15,"[5, 2, 1, 0.5]",lin,1,1,8,4,4,19,up,5,0,0,,515.9553717498202,515.9644531249069,516.4486191249453,516.4486191249453,516.5201360408682,516.5201360408682,516.5321758328937,517.4511852499563,1,,,,,,,,,,,,,,,daniel,001,2025-08-18_18h22.17.637,tilt_staircase,2024.2.4,None,2025-08-18 18h22.38.209282 -0400,
,,,1,0,1,,,,,,,,,,,,,,,,,,1,0,1,0,517.4581171658356,,,,,,,,,,,,,,,,,,,,,,,,,,,,,,,,,,,,,,,,,,,,,,,,,,,,,,,,,,,,,,,,,,posc_noss,30,15,15,-15,"[5, 2, 1, 0.5]",lin,1,1,8,5,4,20,down,5,0,0,,517.4525087908842,517.4581171658356,517.9479507079814,517.9479507079814,518.0221179579385,518.0221179579385,518.0221179579385,519.0879295000341,1,,,,,,,,,,,,,,,daniel,001,2025-08-18_18h22.17.637,tilt_staircase,2024.2.4,None,2025-08-18 18h22.38.209282 -0400,
,,,1,0,1,,,,,,,,,,,,,,,,,,1,0,1,0,519.0977172078565,,,,,,,,,,,,,,,,,,,,,,,,,,,,,,,,,,,,,,,,,,,,,,,,,,,,,,,,,,,,,,,,,,posc_poss,30,15,15,-15,"[5, 2, 1, 0.5]",lin,1,1,8,3,4,21,down,5,0,0,30,519.0889442909975,519.0977172078565,519.5822596249636,519.5822596249636,519.6522153748665,519.6522153748665,519.6654097908176,520.1668032498565,0,,,,,,,,,,,,,,,daniel,001,2025-08-18_18h22.17.637,tilt_staircase,2024.2.4,None,2025-08-18 18h22.38.209282 -0400,
,,,1,0,1,,,,,,,,,,,,,,,,,,1,0,1,0,520.1746538330335,,,,,,,,,,,,,,,,,,,,,,,,,,,,,,,,,,,,,,,,,,,,,,,,,,,,,,,,,,,,,,,,,,negc_negs,30,-15,15,-15,"[5, 2, 1, 0.5]",lin,1,1,8,0,4,22,up,5,0,0,-30,520.1677758749574,520.1746538330335,520.6654378329404,520.6654378329404,520.7377295000479,520.7377295000479,520.7377295000479,521.1169905830175,1,,,,,,,,,,,,,,,daniel,001,2025-08-18_18h22.17.637,tilt_staircase,2024.2.4,None,2025-08-18 18h22.38.209282 -0400,
,,,1,0,1,,,,,,,,,,,,,,,,,,1,0,1,0,521.124781915918,,,,,,,,,,,,,,,,,,,,,,,,,,,,,,,,,,,,,,,,,,,,,,,,,,,,,,,,,,,,,,,,,,negc_poss,30,-15,15,-15,"[5, 2, 1, 0.5]",lin,1,1,8,2,4,23,up,5,0,0,30,521.1183390829246,521.124781915918,521.6154877499212,521.6154877499212,521.6865191250108,521.6865191250108,521.6865191250108,522.1510898328852,0,,,,,,,,,,,,,,,daniel,001,2025-08-18_18h22.17.637,tilt_staircase,2024.2.4,None,2025-08-18 18h22.38.209282 -0400,
,,,1,0,1,,,,,,,,,,,,,,,,,,1,0,1,0,522.1593863749877,,,,,,,,,,,,,,,,,,,,,,,,,,,,,,,,,,,,,,,,,,,,,,,,,,,,,,,,,,,,,,,,,,posc_noss,30,15,15,-15,"[5, 2, 1, 0.5]",lin,1,1,8,5,5,24,down,5,-5,-5,,522.1522374160122,522.1593863749877,522.6488671659026,522.6488671659026,522.7200216248166,522.7200216248166,522.7200216248166,523.15051162499,0,,,,,,,,,,,,,,,daniel,001,2025-08-18_18h22.17.637,tilt_staircase,2024.2.4,None,2025-08-18 18h22.38.209282 -0400,
,,,1,0,1,,,,,,,,,,,,,,,,,,1,0,1,0,523.1583560828585,,,,,,,,,,,,,,,,,,,,,,,,,,,,,,,,,,,,,,,,,,,,,,,,,,,,,,,,,,,,,,,,,,posc_negs,30,15,15,-15,"[5, 2, 1, 0.5]",lin,1,1,8,1,5,25,down,5,-5,-5,-30,523.1515728328377,523.1583560828585,523.6483257079963,523.6483257079963,523.7220492910128,523.7220492910128,523.7220492910128,524.4405137908179,0,,,,,,,,,,,,,,,daniel,001,2025-08-18_18h22.17.637,tilt_staircase,2024.2.4,None,2025-08-18 18h22.38.209282 -0400,
,,,1,0,1,,,,,,,,,,,,,,,,,,1,0,1,0,524.4655779998284,,,,,,,,,,,,,,,,,,,,,,,,,,,,,,,,,,,,,,,,,,,,,,,,,,,,,,,,,,,,,,,,,,negc_negs,30,-15,15,-15,"[5, 2, 1, 0.5]",lin,1,1,8,0,5,26,down,2,-2,-2,-30,524.4422489998396,524.4655779998284,524.9410412500147,524.9410412500147,525.0156848328188,525.0156848328188,525.0156848328188,525.3891500828322,1,,,,,,,,,,,,,,,daniel,001,2025-08-18_18h22.17.637,tilt_staircase,2024.2.4,None,2025-08-18 18h22.38.209282 -0400,
,,,1,0,1,,,,,,,,,,,,,,,,,,1,0,1,0,525.3976882498246,,,,,,,,,,,,,,,,,,,,,,,,,,,,,,,,,,,,,,,,,,,,,,,,,,,,,,,,,,,,,,,,,,posc_poss,30,15,15,-15,"[5, 2, 1, 0.5]",lin,1,1,8,3,5,27,up,2,2,2,30,525.390470250044,525.3976882498246,525.8905278330203,525.8905278330203,525.9654146658722,525.9654146658722,525.9654146658722,526.3675880830269,0,,,,,,,,,,,,,,,daniel,001,2025-08-18_18h22.17.637,tilt_staircase,2024.2.4,None,2025-08-18 18h22.38.209282 -0400,
,,,1,0,1,,,,,,,,,,,,,,,,,,1,0,1,0,526.3753842499573,,,,,,,,,,,,,,,,,,,,,,,,,,,,,,,,,,,,,,,,,,,,,,,,,,,,,,,,,,,,,,,,,,negc_poss,30,-15,15,-15,"[5, 2, 1, 0.5]",lin,1,1,8,2,5,28,up,5,5,5,30,526.3686297498643,526.3753842499573,526.8654116659891,526.8654116659891,526.9384871248621,526.9384871248621,526.9384871248621,527.4009090829641,1,,,,,,,,,,,,,,,daniel,001,2025-08-18_18h22.17.637,tilt_staircase,2024.2.4,None,2025-08-18 18h22.38.209282 -0400,
,,,1,0,1,,,,,,,,,,,,,,,,,,1,0,1,0,527.4088814998977,,,,,,,,,,,,,,,,,,,,,,,,,,,,,,,,,,,,,,,,,,,,,,,,,,,,,,,,,,,,,,,,,,negc_noss,30,-15,15,-15,"[5, 2, 1, 0.5]",lin,1,1,8,4,5,29,down,2,-2,-2,,527.4021319998428,527.4088814998977,527.8989206249826,527.8989206249826,527.9709563748911,527.9709563748911,527.9709563748911,528.5064374159556,0,,,,,,,,,,,,,,,daniel,001,2025-08-18_18h22.17.637,tilt_staircase,2024.2.4,None,2025-08-18 18h22.38.209282 -0400,
,,,1,0,1,,,,,,,,,,,,,,,,,,1,0,1,0,528.5146203329787,,,,,,,,,,,,,,,,,,,,,,,,,,,,,,,,,,,,,,,,,,,,,,,,,,,,,,,,,,,,,,,,,,posc_noss,30,15,15,-15,"[5, 2, 1, 0.5]",lin,1,1,8,5,6,30,up,2,-3,-3,,528.5075066250283,528.5146203329787,529.0080756249372,529.0080756249372,529.0820342078805,529.0820342078805,529.0820342078805,529.534294083016,0,,,,,,,,,,,,,,,daniel,001,2025-08-18_18h22.17.637,tilt_staircase,2024.2.4,None,2025-08-18 18h22.38.209282 -0400,
,,,1,0,1,,,,,,,,,,,,,,,,,,1,0,1,0,529.5423969158437,,,,,,,,,,,,,,,,,,,,,,,,,,,,,,,,,,,,,,,,,,,,,,,,,,,,,,,,,,,,,,,,,,negc_negs,30,-15,15,-15,"[5, 2, 1, 0.5]",lin,1,1,8,0,6,31,down,2,-4,-4,-30,529.5354937908705,529.5423969158437,530.0321004160214,530.0321004160214,530.1050015408546,530.1050015408546,530.1050015408546,530.5343512499239,1,,,,,,,,,,,,,,,daniel,001,2025-08-18_18h22.17.637,tilt_staircase,2024.2.4,None,2025-08-18 18h22.38.209282 -0400,
,,,1,0,1,,,,,,,,,,,,,,,,,,1,0,1,0,530.5426500828471,,,,,,,,,,,,,,,,,,,,,,,,,,,,,,,,,,,,,,,,,,,,,,,,,,,,,,,,,,,,,,,,,,posc_negs,30,15,15,-15,"[5, 2, 1, 0.5]",lin,1,1,8,1,6,32,up,2,-3,-3,-30,530.535915666027,530.5426500828471,531.0321526660118,531.0321526660118,531.104391957866,531.104391957866,531.104391957866,531.5561227079015,1,,,,,,,,,,,,,,,daniel,001,2025-08-18_18h22.17.637,tilt_staircase,2024.2.4,None,2025-08-18 18h22.38.209282 -0400,
,,,1,0,1,,,,,,,,,,,,,,,,,,1,0,1,0,531.5644646249712,,,,,,,,,,,,,,,,,,,,,,,,,,,,,,,,,,,,,,,,,,,,,,,,,,,,,,,,,,,,,,,,,,negc_noss,30,-15,15,-15,"[5, 2, 1, 0.5]",lin,1,1,8,4,6,33,up,1,-1,-1,,531.5570929159876,531.5644646249712,532.0579855409451,532.0579855409451,532.1321792909876,532.1321792909876,532.1321792909876,532.7227561660111,0,,,,,,,,,,,,,,,daniel,001,2025-08-18_18h22.17.637,tilt_staircase,2024.2.4,None,2025-08-18 18h22.38.209282 -0400,
,,,1,0,1,,,,,,,,,,,,,,,,,,1,0,1,0,532.7310929999221,,,,,,,,,,,,,,,,,,,,,,,,,,,,,,,,,,,,,,,,,,,,,,,,,,,,,,,,,,,,,,,,,,negc_poss,30,-15,15,-15,"[5, 2, 1, 0.5]",lin,1,1,8,2,6,34,down,2,3,3,30,532.7237907908857,532.7310929999221,533.2239902080037,533.2239902080037,533.2988524159882,533.2988524159882,533.2988524159882,533.8220849579666,1,,,,,,,,,,,,,,,daniel,001,2025-08-18_18h22.17.637,tilt_staircase,2024.2.4,None,2025-08-18 18h22.38.209282 -0400,
,,,1,0,1,,,,,,,,,,,,,,,,,,1,0,1,0,533.8309584578965,,,,,,,,,,,,,,,,,,,,,,,,,,,,,,,,,,,,,,,,,,,,,,,,,,,,,,,,,,,,,,,,,,posc_poss,30,15,15,-15,"[5, 2, 1, 0.5]",lin,1,1,8,3,6,35,up,2,4,4,30,533.8230971659068,533.8309584578965,534.3229010829236,534.3229010829236,534.3990687499754,534.3990687499754,534.3990687499754,534.9866236250382,1,,,,,,,,,,,,,,,daniel,001,2025-08-18_18h22.17.637,tilt_staircase,2024.2.4,None,2025-08-18 18h22.38.209282 -0400,
,,,1,0,1,,,,,,,,,,,,,,,,,,1,0,1,0,534.9986736248247,,,,,,,,,,,,,,,,,,,,,,,,,,,,,,,,,,,,,,,,,,,,,,,,,,,,,,,,,,,,,,,,,,negc_noss,30,-15,15,-15,"[5, 2, 1, 0.5]",lin,1,1,8,4,7,36,up,1,0,0,,534.9872984159738,534.9986736248247,535.4813513748813,535.4813513748813,535.5540972079616,535.5540972079616,535.5655777498614,536.1747511250433,1,,,,,,,,,,,,,,,daniel,001,2025-08-18_18h22.17.637,tilt_staircase,2024.2.4,None,2025-08-18 18h22.38.209282 -0400,
,,,1,0,1,,,,,,,,,,,,,,,,,,1,0,1,0,536.1857827079948,,,,,,,,,,,,,,,,,,,,,,,,,,,,,,,,,,,,,,,,,,,,,,,,,,,,,,,,,,,,,,,,,,posc_negs,30,15,15,-15,"[5, 2, 1, 0.5]",lin,1,1,8,1,7,37,down,1,-4,-4,-30,536.1763520829845,536.1857827079948,536.6740101249889,536.6740101249889,536.7488098749891,536.7488098749891,536.7488098749891,537.349887332879,0,,,,,,,,,,,,,,,daniel,001,2025-08-18_18h22.17.637,tilt_staircase,2024.2.4,None,2025-08-18 18h22.38.209282 -0400,
,,,1,0,1,,,,,,,,,,,,,,,,,,1,0,1,0,537.3573247499298,,,,,,,,,,,,,,,,,,,,,,,,,,,,,,,,,,,,,,,,,,,,,,,,,,,,,,,,,,,,,,,,,,negc_negs,30,-15,15,-15,"[5, 2, 1, 0.5]",lin,1,1,8,0,7,38,down,2,-6,-6,-30,537.3508959580213,537.3573247499298,537.8477576659061,537.8477576659061,537.922248207964,537.922248207964,537.922248207964,538.3567915828899,0,,,,,,,,,,,,,,,daniel,001,2025-08-18_18h22.17.637,tilt_staircase,2024.2.4,None,2025-08-18 18h22.38.209282 -0400,
,,,1,0,1,,,,,,,,,,,,,,,,,,1,0,1,0,538.3649874159601,,,,,,,,,,,,,,,,,,,,,,,,,,,,,,,,,,,,,,,,,,,,,,,,,,,,,,,,,,,,,,,,,,posc_noss,30,15,15,-15,"[5, 2, 1, 0.5]",lin,1,1,8,5,7,39,up,2,-1,-1,,538.35799833294,538.3649874159601,538.8571417909116,538.8571417909116,538.9320139999036,538.9320139999036,538.9320139999036,539.6337539579254,0,,,,,,,,,,,,,,,daniel,001,2025-08-18_18h22.17.637,tilt_staircase,2024.2.4,None,2025-08-18 18h22.38.209282 -0400,
,,,1,0,1,,,,,,,,,,,,,,,,,,1,0,1,0,539.6416196660139,,,,,,,,,,,,,,,,,,,,,,,,,,,,,,,,,,,,,,,,,,,,,,,,,,,,,,,,,,,,,,,,,,negc_poss,30,-15,15,-15,"[5, 2, 1, 0.5]",lin,1,1,8,2,7,40,down,2,1,1,30,539.6349843749776,539.6416196660139,540.1321602908429,540.1321602908429,540.2055487078615,540.2055487078615,540.2055487078615,540.7045371658169,0,,,,,,,,,,,,,,,daniel,001,2025-08-18_18h22.17.637,tilt_staircase,2024.2.4,None,2025-08-18 18h22.38.209282 -0400,
,,,1,0,1,,,,,,,,,,,,,,,,,,1,0,1,0,540.7143345410004,,,,,,,,,,,,,,,,,,,,,,,,,,,,,,,,,,,,,,,,,,,,,,,,,,,,,,,,,,,,,,,,,,posc_poss,30,15,15,-15,"[5, 2, 1, 0.5]",lin,1,1,8,3,7,41,down,1,3,3,30,540.7055471248459,540.7143345410004,541.1980259579141,541.1980259579141,541.2699239999056,541.2699239999056,541.2820593749639,541.6670875828713,1,,,,,,,,,,,,,,,daniel,001,2025-08-18_18h22.17.637,tilt_staircase,2024.2.4,None,2025-08-18 18h22.38.209282 -0400,
,,,1,0,1,,,,,,,,,,,,,,,,,,1,0,1,0,541.6752098749857,,,,,,,,,,,,,,,,,,,,,,,,,,,,,,,,,,,,,,,,,,,,,,,,,,,,,,,,,,,,,,,,,,negc_poss,30,-15,15,-15,"[5, 2, 1, 0.5]",lin,1,1,8,2,8,42,up,1,2,2,30,541.6684031658806,541.6752098749857,542.164958790876,542.164958790876,542.2383188749664,542.2383188749664,542.2383188749664,543.3557034998666,1,,,,,,,,,,,,,,,daniel,001,2025-08-18_18h22.17.637,tilt_staircase,2024.2.4,None,2025-08-18 18h22.38.209282 -0400,
,,,1,0,1,,,,,,,,,,,,,,,,,,1,0,1,0,543.3642851249315,,,,,,,,,,,,,,,,,,,,,,,,,,,,,,,,,,,,,,,,,,,,,,,,,,,,,,,,,,,,,,,,,,negc_negs,30,-15,15,-15,"[5, 2, 1, 0.5]",lin,1,1,8,0,8,43,up,1,-5,-5,-30,543.3568309159018,543.3642851249315,543.8574268328957,543.8574268328957,543.9321401249617,543.9321401249617,543.9321401249617,544.5924713329878,0,,,,,,,,,,,,,,,daniel,001,2025-08-18_18h22.17.637,tilt_staircase,2024.2.4,None,2025-08-18 18h22.38.209282 -0400,
,,,1,0,1,,,,,,,,,,,,,,,,,,1,0,1,0,544.5981764160097,,,,,,,,,,,,,,,,,,,,,,,,,,,,,,,,,,,,,,,,,,,,,,,,,,,,,,,,,,,,,,,,,,posc_negs,30,15,15,-15,"[5, 2, 1, 0.5]",lin,1,1,8,1,8,44,up,0.5,-3.5,-3.5,-30,544.5934895828832,544.5981764160097,545.0907594999298,545.0907594999298,545.1652466249652,545.1652466249652,545.1706575409044,545.671009582933,1,,,,,,,,,,,,,,,daniel,001,2025-08-18_18h22.17.637,tilt_staircase,2024.2.4,None,2025-08-18 18h22.38.209282 -0400,
,,,1,0,1,,,,,,,,,,,,,,,,,,1,0,1,0,545.681367208017,,,,,,,,,,,,,,,,,,,,,,,,,,,,,,,,,,,,,,,,,,,,,,,,,,,,,,,,,,,,,,,,,,posc_poss,30,15,15,-15,"[5, 2, 1, 0.5]",lin,1,1,8,3,8,45,down,1,2,2,30,545.672006333014,545.681367208017,546.164914582856,546.164914582856,546.2370966249146,546.2370966249146,546.2488173330203,546.8382762498222,1,,,,,,,,,,,,,,,daniel,001,2025-08-18_18h22.17.637,tilt_staircase,2024.2.4,None,2025-08-18 18h22.38.209282 -0400,
,,,1,0,1,,,,,,,,,,,,,,,,,,1,0,1,0,546.8476492080372,,,,,,,,,,,,,,,,,,,,,,,,,,,,,,,,,,,,,,,,,,,,,,,,,,,,,,,,,,,,,,,,,,negc_noss,30,-15,15,-15,"[5, 2, 1, 0.5]",lin,1,1,8,4,8,46,down,0.5,-0.5,-0.5,,546.839268582873,546.8476492080372,547.3310840409249,547.3310840409249,547.4045779579319,547.4045779579319,547.4154918328859,548.3007492078468,1,,,,,,,,,,,,,,,daniel,001,2025-08-18_18h22.17.637,tilt_staircase,2024.2.4,None,2025-08-18 18h22.38.209282 -0400,
,,,1,0,1,,,,,,,,,,,,,,,,,,1,0,1,0,548.3075092909858,,,,,,,,,,,,,,,,,,,,,,,,,,,,,,,,,,,,,,,,,,,,,,,,,,,,,,,,,,,,,,,,,,posc_noss,30,15,15,-15,"[5, 2, 1, 0.5]",lin,1,1,8,5,8,47,up,2,1,1,,548.3021242499817,548.3075092909858,548.7988358328585,548.7988358328585,548.8712226250209,548.8712226250209,548.8712226250209,549.2723666660022,1,,,,,,,,,,,,,,,daniel,001,2025-08-18_18h22.17.637,tilt_staircase,2024.2.4,None,2025-08-18 18h22.38.209282 -0400,
,,,1,0,1,,,,,,,,,,,,,,,,,,1,0,1,0,549.2809576659929,,,,,,,,,,,,,,,,,,,,,,,,,,,,,,,,,,,,,,,,,,,,,,,,,,,,,,,,,,,,,,,,,,negc_noss,30,-15,15,-15,"[5, 2, 1, 0.5]",lin,1,1,8,4,9,48,down,0.5,-1.0,-1.0,,549.2733986249659,549.2809576659929,549.7746578329243,549.7746578329243,549.8541262908839,549.8541262908839,549.848746040836,550.4058784998488,0,,,,,,,,,,,,,,,daniel,001,2025-08-18_18h22.17.637,tilt_staircase,2024.2.4,None,2025-08-18 18h22.38.209282 -0400,
,,,1,0,1,,,,,,,,,,,,,,,,,,1,0,1,0,550.4143032080028,,,,,,,,,,,,,,,,,,,,,,,,,,,,,,,,,,,,,,,,,,,,,,,,,,,,,,,,,,,,,,,,,,posc_noss,30,15,15,-15,"[5, 2, 1, 0.5]",lin,1,1,8,5,9,49,down,1,0,0,,550.4070305828936,550.4143032080028,550.8976676249877,550.8976676249877,550.970782124903,550.970782124903,550.9819942908362,551.5056108329445,0,,,,,,,,,,,,,,,daniel,001,2025-08-18_18h22.17.637,tilt_staircase,2024.2.4,None,2025-08-18 18h22.38.209282 -0400,
