center,surround,correct,thisN,thisTrialN,thisRepN,key_resp_3.keys,key_resp_3.corr,key_resp_3.rt,key_resp_3.duration,opacity,key_resp_4.keys,key_resp_4.corr,key_resp_4.rt,key_resp_4.duration,practice_no_time.thisRepN,practice_no_time.thisTrialN,practice_no_time.thisN,practice_no_time.thisIndex,practice_timed.thisRepN,practice_timed.thisTrialN,practice_timed.thisN,practice_timed.thisIndex,blocks.thisRepN,blocks.thisTrialN,blocks.thisN,blocks.thisIndex,thisRow.t,notes,instr.started,text_5.started,key_resp_2.started,instr.stopped,key_resp_2.keys,key_resp_2.rt,key_resp_2.duration,instr2.started,text_6.started,key_resp_6.started,instr2.stopped,key_resp_6.keys,key_resp_6.rt,key_resp_6.duration,test.started,surround_practice_3.started,center_practice_3.started,key_resp_7.started,test.stopped,key_resp_7.keys,key_resp_7.rt,key_resp_7.duration,practice_trial.started,key_resp_3.started,surround_practice.started,center_practice.started,surround_practice.stopped,center_practice.stopped,text_11.started,practice_trial.stopped,practice_no_time.key_resp_3.keys,practice_no_time.key_resp_3.corr,practice_no_time.key_resp_3.rt,practice_no_time.key_resp_3.duration,practice_feedback.started,text_7.started,practice_feedback.stopped,text_7.stopped,instr3.started,text_8.started,key_resp_5.started,instr3.stopped,key_resp_5.keys,key_resp_5.rt,key_resp_5.duration,practice_trial_timed.started,key_resp_4.started,surround_practice_2.started,center_practice_2.started,surround_practice_2.stopped,center_practice_2.stopped,text_12.started,practice_trial_timed.stopped,practice_timed.key_resp_4.keys,practice_timed.key_resp_4.corr,practice_timed.key_resp_4.rt,practice_timed.key_resp_4.duration,start_instr.started,text_13.started,key_resp_8.started,start_instr.stopped,key_resp_8.keys,key_resp_8.rt,key_resp_8.duration,trials.label,trials.nReps,trials.startVal,trials.maxVal,trials.minVal,trials.stepSizes,trials.stepType,trials.nUp,trials.nDown,trials.nReversals,trials.thisIndex,trials.thisRepN,trials.thisN,trials.direction,trials.stepSize,trials.intensity,center_angle,surround_angle,trial.started,resp.started,surround_grating.started,center_grating.started,text_3.started,surround_grating.stopped,center_grating.stopped,trial.stopped,trials.response,break_2.started,text_14.started,key_resp_9.started,break_2.stopped,blocks.key_resp_9.keys,blocks.key_resp_9.rt,blocks.key_resp_9.duration,end.started,text_4.started,key_resp.started,end.stopped,key_resp.keys,key_resp.rt,key_resp.duration,participant,session,date,expName,psychopyVersion,frameRate,expStart,
,,,,,,,,,,,,,,,,,,,,,,,,,,,,,0.008833499858155847,0.024137584026902914,0.024137584026902914,56.17350579192862,space,56.12673083413392,None,,,,,,,,,,,,,,,,,,,,,,,,,,,,,,,,,,,,,,,,,,,,,,,,,,,,,,,,,,,,,,,,,,,,,,,,,,,,,,,,,,,,,,,,,,,,,,,,,,,gabriel,001,2025-08-18_15h47.50.623,tilt_staircase,2024.2.4,None,2025-08-18 15h48.06.927580 -0400,
,,,,,,,,,,,,,,,,,,,,,,,,,,,,,,,,,,,,56.17366854194552,56.18238037498668,56.18238037498668,65.0250227919314,space,8.837165624834597,None,,,,,,,,,,,,,,,,,,,,,,,,,,,,,,,,,,,,,,,,,,,,,,,,,,,,,,,,,,,,,,,,,,,,,,,,,,,,,,,,,,,,,,,,,,,,gabriel,001,2025-08-18_15h47.50.623,tilt_staircase,2024.2.4,None,2025-08-18 15h48.06.927580 -0400,
,,,,,,,,,,,,,,,,,,,,,,,,,,,,,,,,,,,,,,,,,,,65.02657520887442,65.04872387484647,65.04872387484647,65.04872387484647,68.35245912498794,space,3.2963946668896824,None,,,,,,,,,,,,,,,,,,,,,,,,,,,,,,,,,,,,,,,,,,,,,,,,,,,,,,,,,,,,,,,,,,,,,,,,,,,,,,,,,,,,gabriel,001,2025-08-18_15h47.50.623,tilt_staircase,2024.2.4,None,2025-08-18 15h48.06.927580 -0400,
30,0,right,0,0,0,right,1,3.0600662091746926,None,,,,,,0,0,0,0,,,,,,,,,68.42677145893686,,,,,,,,,,,,,,,,,,,,,,,,68.42138025001623,68.42677145893686,68.85379062499851,68.85379062499851,69.84953387500718,69.84953387500718,69.84953387500718,71.49112295894884,right,1,3.0600662091746926,None,71.49822416692041,71.71124683390372,73.00038954196498,,,,,,,,,,,,,,,,,,,,,,,,,,,,,,,,,,,,,,,,,,,,,,,,,,,,,,,,,,,,,,,,,,,,,gabriel,001,2025-08-18_15h47.50.623,tilt_staircase,2024.2.4,None,2025-08-18 15h48.06.927580 -0400,
-30,0,left,1,1,0,left,1,1.1653747919481248,None,,,,,,0,1,1,1,,,,,,,,,73.0065984588582,,,,,,,,,,,,,,,,,,,,,,,,73.00161558389664,73.0065984588582,73.49188170884736,73.49188170884736,,,,74.17461824999191,left,1,1.1653747919481248,None,74.17477549985051,74.18614374985918,75.67321799998172,75.68343287496828,,,,,,,,,,,,,,,,,,,,,,,,,,,,,,,,,,,,,,,,,,,,,,,,,,,,,,,,,,,,,,,,,,,,gabriel,001,2025-08-18_15h47.50.623,tilt_staircase,2024.2.4,None,2025-08-18 15h48.06.927580 -0400,
30,60,right,2,2,0,right,1,1.1619683341123164,None,,,,,,0,2,2,2,,,,,,,,,75.68343287496828,,,,,,,,,,,,,,,,,,,,,,,,75.67426791694015,75.68343287496828,76.17544841696508,76.17544841696508,,,,76.85255033383146,right,1,1.1619683341123164,None,76.85273599997163,76.861576708965,78.35087708383799,78.35683504189365,,,,,,,,,,,,,,,,,,,,,,,,,,,,,,,,,,,,,,,,,,,,,,,,,,,,,,,,,,,,,,,,,,,,gabriel,001,2025-08-18_15h47.50.623,tilt_staircase,2024.2.4,None,2025-08-18 15h48.06.927580 -0400,
-30,-60,left,3,3,0,left,1,1.0949431250337511,None,,,,,,0,3,3,3,,,,,,,,,78.35683504189365,,,,,,,,,,,,,,,,,,,,,,,,78.35201029200107,78.35683504189365,78.84907037485391,78.84907037485391,,,,79.45773187489249,left,1,1.0949431250337511,None,79.45783787500113,79.46579508390278,80.95121316704899,80.96021737484261,,,,,,,,,,,,,,,,,,,,,,,,,,,,,,,,,,,,,,,,,,,,,,,,,,,,,,,,,,,,,,,,,,,,gabriel,001,2025-08-18_15h47.50.623,tilt_staircase,2024.2.4,None,2025-08-18 15h48.06.927580 -0400,
,,,,,,,,,,,,,,,,,,,,,,,,,,,,,,,,,,,,,,,,,,,,,,,,,,,,,,,,,,,,,,,,,,,80.95145608391613,80.96021737484261,80.96021737484261,91.31843662494794,space,10.34699016599916,None,,,,,,,,,,,,,,,,,,,,,,,,,,,,,,,,,,,,,,,,,,,,,,,,,,,,,,,,,,,,,gabriel,001,2025-08-18_15h47.50.623,tilt_staircase,2024.2.4,None,2025-08-18 15h48.06.927580 -0400,
-30,-60,left,0,0,0,,,,,100,left,1,2.079208082985133,None,,,,,0,0,0,0,,,,,91.34595591691323,,,,,,,,,,,,,,,,,,,,,,,,,,,,,,,,,,,,93.43547583394684,93.44291933393106,94.93409433402121,94.93903858400881,,,,,,,,91.33774391701445,91.34595591691323,91.81999916699715,91.81999916699715,91.89049541694112,91.89049541694112,91.89049541694112,93.43531462503597,left,1,2.079208082985133,None,,,,,,,,,,,,,,,,,,,,,,,,,,,,,,,,,,,,,,,,,,,,,,,,,gabriel,001,2025-08-18_15h47.50.623,tilt_staircase,2024.2.4,None,2025-08-18 15h48.06.927580 -0400,
-30,0,left,1,1,0,,,,,100,left,1,1.1617895408999175,None,,,,,0,1,1,1,,,,,94.93903858400881,,,,,,,,,,,,,,,,,,,,,,,,,,,,,,,,,,,,96.10997462482192,96.11551433382556,97.6011138339527,97.60668612504378,,,,,,,,94.93463904201053,94.93903858400881,95.43361558392644,95.43361558392644,95.50648612482473,95.50648612482473,95.50648612482473,96.10981312487274,left,1,1.1617895408999175,None,,,,,,,,,,,,,,,,,,,,,,,,,,,,,,,,,,,,,,,,,,,,,,,,,gabriel,001,2025-08-18_15h47.50.623,tilt_staircase,2024.2.4,None,2025-08-18 15h48.06.927580 -0400,
30,60,right,2,2,0,,,,,100,right,1,1.1775869589764625,None,,,,,0,2,2,2,,,,,97.60668612504378,,,,,,,,,,,,,,,,,,,,,,,,,,,,,,,,,,,,98.78939399984665,98.79920308385044,100.28414987493306,100.2893862919882,,,,,,,,97.60172187490389,97.60668612504378,98.10864337487146,98.10864337487146,98.18337991693988,98.18337991693988,98.18337991693988,98.78923862497322,right,1,1.1775869589764625,None,,,,,,,,,,,,,,,,,,,,,,,,,,,,,,,,,,,,,,,,,,,,,,,,,gabriel,001,2025-08-18_15h47.50.623,tilt_staircase,2024.2.4,None,2025-08-18 15h48.06.927580 -0400,
30,0,right,3,3,0,,,,,100,right,1,1.2450999580323696,None,,,,,0,3,3,3,,,,,100.2893862919882,,,,,,,,,,,,,,,,,,,,,,,,,,,,,,,,,,,,101.54501866688952,101.54956204188056,103.03440145892091,103.04003195883706,,,,,,,,100.28473670897074,100.2893862919882,100.78670966695063,100.78670966695063,100.85410399991088,100.85410399991088,100.86586687504314,101.5448986669071,right,1,1.2450999580323696,None,,,,,,,,,,,,,,,,,,,,,,,,,,,,,,,,,,,,,,,,,,,,,,,,,gabriel,001,2025-08-18_15h47.50.623,tilt_staircase,2024.2.4,None,2025-08-18 15h48.06.927580 -0400,
-30,69,left,4,4,0,,,,,0,left,1,1.0779021249618381,None,,,,,0,4,4,4,,,,,103.04003195883706,,,,,,,,,,,,,,,,,,,,,,,,,,,,,,,,,,,,104.12678233394399,104.13226899993606,105.61757341702469,105.62304758396931,,,,,,,,103.03501320886426,103.04003195883706,103.54158416693099,103.54158416693099,103.61671495903283,103.61671495903283,103.62287454190664,104.1266713750083,left,1,1.0779021249618381,None,,,,,,,,,,,,,,,,,,,,,,,,,,,,,,,,,,,,,,,,,,,,,,,,,gabriel,001,2025-08-18_15h47.50.623,tilt_staircase,2024.2.4,None,2025-08-18 15h48.06.927580 -0400,
30,69,right,5,5,0,,,,,0,right,1,1.037365207914263,None,,,,,0,5,5,5,,,,,105.62304758396931,,,,,,,,,,,,,,,,,,,,,,,,,,,,,,,,,,,,106.66914341691881,106.67730233399197,108.16755812498741,108.17548204190098,,,,,,,,105.61828787485138,105.62304758396931,106.1252524999436,106.1252524999436,106.20029820897616,106.20029820897616,106.20029820897616,106.668968959013,right,1,1.037365207914263,None,,,,,,,,,,,,,,,,,,,,,,,,,,,,,,,,,,,,,,,,,,,,,,,,,gabriel,001,2025-08-18_15h47.50.623,tilt_staircase,2024.2.4,None,2025-08-18 15h48.06.927580 -0400,
,,,,,,,,,,,,,,,,,,,,,,,,,,,,,,,,,,,,,,,,,,,,,,,,,,,,,,,,,,,,,,,,,,,,,,,,,,,,,,,,,,,,,,108.16776779200882,108.17548204190098,108.17548204190098,113.37409533397295,space,5.193330999929458,None,,,,,,,,,,,,,,,,,,,,,,,,,,,,,,,,,,,,,,,,,,gabriel,001,2025-08-18_15h47.50.623,tilt_staircase,2024.2.4,None,2025-08-18 15h48.06.927580 -0400,
,,,0,0,0,,,,,,,,,,,,,,,,,,0,0,0,0,113.52941970899701,,,,,,,,,,,,,,,,,,,,,,,,,,,,,,,,,,,,,,,,,,,,,,,,,,,,,,,,,,,,,,,,,,negc_negs,30,-15,15,-15,"[5, 2, 1, 0.5]",lin,1,1,8,0,1,0,start,5,-15,-15,-30,113.52395954192616,113.52941970899701,113.88131229183637,113.88131229183637,113.95025500003248,113.95455012493767,113.95455012493767,115.22785104182549,0,,,,,,,,,,,,,,,gabriel,001,2025-08-18_15h47.50.623,tilt_staircase,2024.2.4,None,2025-08-18 15h48.06.927580 -0400,
,,,0,0,0,,,,,,,,,,,,,,,,,,0,0,0,0,115.23322245897725,,,,,,,,,,,,,,,,,,,,,,,,,,,,,,,,,,,,,,,,,,,,,,,,,,,,,,,,,,,,,,,,,,posc_noss,30,15,15,-15,"[5, 2, 1, 0.5]",lin,1,1,8,5,1,1,start,5,15,15,,115.22886254196055,115.23322245897725,115.72527137491852,115.72527137491852,115.80575362499803,115.80028295889497,115.80028295889497,116.36870416696183,1,,,,,,,,,,,,,,,gabriel,001,2025-08-18_15h47.50.623,tilt_staircase,2024.2.4,None,2025-08-18 15h48.06.927580 -0400,
,,,0,0,0,,,,,,,,,,,,,,,,,,0,0,0,0,116.37659487500787,,,,,,,,,,,,,,,,,,,,,,,,,,,,,,,,,,,,,,,,,,,,,,,,,,,,,,,,,,,,,,,,,,posc_poss,30,15,15,-15,"[5, 2, 1, 0.5]",lin,1,1,8,3,1,2,start,5,15,15,30,116.3699234998785,116.37659487500787,116.86657266691327,116.86657266691327,116.93918920890428,116.93918920890428,116.93918920890428,117.5524983338546,1,,,,,,,,,,,,,,,gabriel,001,2025-08-18_15h47.50.623,tilt_staircase,2024.2.4,None,2025-08-18 15h48.06.927580 -0400,
,,,0,0,0,,,,,,,,,,,,,,,,,,0,0,0,0,117.56170541699976,,,,,,,,,,,,,,,,,,,,,,,,,,,,,,,,,,,,,,,,,,,,,,,,,,,,,,,,,,,,,,,,,,negc_poss,30,-15,15,-15,"[5, 2, 1, 0.5]",lin,1,1,8,2,1,3,start,5,-15,-15,30,117.55482670897618,117.56170541699976,118.04984787502326,118.04984787502326,118.12273612502031,118.12273612502031,118.12273612502031,118.60555274994113,0,,,,,,,,,,,,,,,gabriel,001,2025-08-18_15h47.50.623,tilt_staircase,2024.2.4,None,2025-08-18 15h48.06.927580 -0400,
,,,0,0,0,,,,,,,,,,,,,,,,,,0,0,0,0,118.61608045897447,,,,,,,,,,,,,,,,,,,,,,,,,,,,,,,,,,,,,,,,,,,,,,,,,,,,,,,,,,,,,,,,,,negc_noss,30,-15,15,-15,"[5, 2, 1, 0.5]",lin,1,1,8,4,1,4,start,5,-15,-15,,118.60657191695645,118.61608045897447,119.09899850003421,119.09899850003421,119.18385545886122,119.17241687490605,119.17241687490605,119.69302137498744,0,,,,,,,,,,,,,,,gabriel,001,2025-08-18_15h47.50.623,tilt_staircase,2024.2.4,None,2025-08-18 15h48.06.927580 -0400,
,,,0,0,0,,,,,,,,,,,,,,,,,,0,0,0,0,119.69889895897359,,,,,,,,,,,,,,,,,,,,,,,,,,,,,,,,,,,,,,,,,,,,,,,,,,,,,,,,,,,,,,,,,,posc_negs,30,15,15,-15,"[5, 2, 1, 0.5]",lin,1,1,8,1,1,5,start,5,15,15,-30,119.69401670899242,119.69889895897359,120.19104599999264,120.19104599999264,120.26687195897102,120.26687195897102,120.26687195897102,120.8189594168216,1,,,,,,,,,,,,,,,gabriel,001,2025-08-18_15h47.50.623,tilt_staircase,2024.2.4,None,2025-08-18 15h48.06.927580 -0400,
,,,0,0,0,,,,,,,,,,,,,,,,,,0,0,0,0,120.82670012488961,,,,,,,,,,,,,,,,,,,,,,,,,,,,,,,,,,,,,,,,,,,,,,,,,,,,,,,,,,,,,,,,,,posc_poss,30,15,15,-15,"[5, 2, 1, 0.5]",lin,1,1,8,3,2,6,down,5,10,10,30,120.82006024988368,120.82670012488961,121.31667487486266,121.31667487486266,121.38926870888099,121.38926870888099,121.38926870888099,122.16659583384171,1,,,,,,,,,,,,,,,gabriel,001,2025-08-18_15h47.50.623,tilt_staircase,2024.2.4,None,2025-08-18 15h48.06.927580 -0400,
,,,0,0,0,,,,,,,,,,,,,,,,,,0,0,0,0,122.17101320903748,,,,,,,,,,,,,,,,,,,,,,,,,,,,,,,,,,,,,,,,,,,,,,,,,,,,,,,,,,,,,,,,,,posc_negs,30,15,15,-15,"[5, 2, 1, 0.5]",lin,1,1,8,1,2,7,down,5,10,10,-30,122.1670685838908,122.17101320903748,122.65631366684102,122.65631366684102,122.73752974998206,122.73236100003123,122.73236100003123,123.30245945882052,1,,,,,,,,,,,,,,,gabriel,001,2025-08-18_15h47.50.623,tilt_staircase,2024.2.4,None,2025-08-18 15h48.06.927580 -0400,
,,,0,0,0,,,,,,,,,,,,,,,,,,0,0,0,0,123.31125054182485,,,,,,,,,,,,,,,,,,,,,,,,,,,,,,,,,,,,,,,,,,,,,,,,,,,,,,,,,,,,,,,,,,negc_negs,30,-15,15,-15,"[5, 2, 1, 0.5]",lin,1,1,8,0,2,8,up,5,-10,-10,-30,123.30388766690157,123.31125054182485,123.80004658387043,123.80004658387043,123.87372200004756,123.87372200004756,123.87372200004756,124.75298045901582,0,,,,,,,,,,,,,,,gabriel,001,2025-08-18_15h47.50.623,tilt_staircase,2024.2.4,None,2025-08-18 15h48.06.927580 -0400,
,,,0,0,0,,,,,,,,,,,,,,,,,,0,0,0,0,124.76160412491299,,,,,,,,,,,,,,,,,,,,,,,,,,,,,,,,,,,,,,,,,,,,,,,,,,,,,,,,,,,,,,,,,,posc_noss,30,15,15,-15,"[5, 2, 1, 0.5]",lin,1,1,8,5,2,9,down,5,10,10,,124.7542525420431,124.76160412491299,125.24896233389154,125.24896233389154,125.32307795900851,125.32307795900851,125.32307795900851,125.81013787491247,1,,,,,,,,,,,,,,,gabriel,001,2025-08-18_15h47.50.623,tilt_staircase,2024.2.4,None,2025-08-18 15h48.06.927580 -0400,
,,,0,0,0,,,,,,,,,,,,,,,,,,0,0,0,0,125.81540833390318,,,,,,,,,,,,,,,,,,,,,,,,,,,,,,,,,,,,,,,,,,,,,,,,,,,,,,,,,,,,,,,,,,negc_poss,30,-15,15,-15,"[5, 2, 1, 0.5]",lin,1,1,8,2,2,10,up,5,-10,-10,30,125.81115274992771,125.81540833390318,126.30801008385606,126.30801008385606,126.38348808395676,126.38348808395676,126.38348808395676,127.24336649989709,0,,,,,,,,,,,,,,,gabriel,001,2025-08-18_15h47.50.623,tilt_staircase,2024.2.4,None,2025-08-18 15h48.06.927580 -0400,
,,,0,0,0,,,,,,,,,,,,,,,,,,0,0,0,0,127.2487469590269,,,,,,,,,,,,,,,,,,,,,,,,,,,,,,,,,,,,,,,,,,,,,,,,,,,,,,,,,,,,,,,,,,negc_noss,30,-15,15,-15,"[5, 2, 1, 0.5]",lin,1,1,8,4,2,11,up,5,-10,-10,,127.24437620886602,127.2487469590269,127.74229549989104,127.74229549989104,127.81695099989884,127.81695099989884,127.81695099989884,128.4347381668631,0,,,,,,,,,,,,,,,gabriel,001,2025-08-18_15h47.50.623,tilt_staircase,2024.2.4,None,2025-08-18 15h48.06.927580 -0400,
,,,0,0,0,,,,,,,,,,,,,,,,,,0,0,0,0,128.44228716683574,,,,,,,,,,,,,,,,,,,,,,,,,,,,,,,,,,,,,,,,,,,,,,,,,,,,,,,,,,,,,,,,,,negc_noss,30,-15,15,-15,"[5, 2, 1, 0.5]",lin,1,1,8,4,3,12,up,5,-5,-5,,128.4357379169669,128.44228716683574,128.93225504201837,128.93225504201837,129.00645516696386,129.00645516696386,129.00645516696386,129.5074189589359,0,,,,,,,,,,,,,,,gabriel,001,2025-08-18_15h47.50.623,tilt_staircase,2024.2.4,None,2025-08-18 15h48.06.927580 -0400,
,,,0,0,0,,,,,,,,,,,,,,,,,,0,0,0,0,129.51550374994986,,,,,,,,,,,,,,,,,,,,,,,,,,,,,,,,,,,,,,,,,,,,,,,,,,,,,,,,,,,,,,,,,,posc_poss,30,15,15,-15,"[5, 2, 1, 0.5]",lin,1,1,8,3,3,13,down,5,5,5,30,129.50837954203598,129.51550374994986,130.00765499984846,130.00765499984846,130.08332037483342,130.08332037483342,130.08332037483342,130.96865416690707,0,,,,,,,,,,,,,,,gabriel,001,2025-08-18_15h47.50.623,tilt_staircase,2024.2.4,None,2025-08-18 15h48.06.927580 -0400,
,,,0,0,0,,,,,,,,,,,,,,,,,,0,0,0,0,130.97639766684733,,,,,,,,,,,,,,,,,,,,,,,,,,,,,,,,,,,,,,,,,,,,,,,,,,,,,,,,,,,,,,,,,,negc_poss,30,-15,15,-15,"[5, 2, 1, 0.5]",lin,1,1,8,2,3,14,up,5,-5,-5,30,130.96970824990422,130.97639766684733,131.46670187497512,131.46670187497512,131.53913095896132,131.53913095896132,131.53913095896132,132.123841291992,0,,,,,,,,,,,,,,,gabriel,001,2025-08-18_15h47.50.623,tilt_staircase,2024.2.4,None,2025-08-18 15h48.06.927580 -0400,
,,,0,0,0,,,,,,,,,,,,,,,,,,0,0,0,0,132.13212387496606,,,,,,,,,,,,,,,,,,,,,,,,,,,,,,,,,,,,,,,,,,,,,,,,,,,,,,,,,,,,,,,,,,posc_noss,30,15,15,-15,"[5, 2, 1, 0.5]",lin,1,1,8,5,3,15,down,5,5,5,,132.12491904199123,132.13212387496606,132.62450845888816,132.62450845888816,132.69995049992576,132.69995049992576,132.69995049992576,133.20738583384082,1,,,,,,,,,,,,,,,gabriel,001,2025-08-18_15h47.50.623,tilt_staircase,2024.2.4,None,2025-08-18 15h48.06.927580 -0400,
,,,0,0,0,,,,,,,,,,,,,,,,,,0,0,0,0,133.2154786249157,,,,,,,,,,,,,,,,,,,,,,,,,,,,,,,,,,,,,,,,,,,,,,,,,,,,,,,,,,,,,,,,,,posc_negs,30,15,15,-15,"[5, 2, 1, 0.5]",lin,1,1,8,1,3,16,down,5,5,5,-30,133.2085219169967,133.2154786249157,133.7082247089129,133.7082247089129,133.78326766681857,133.78326766681857,133.78326766681857,134.36852000001818,1,,,,,,,,,,,,,,,gabriel,001,2025-08-18_15h47.50.623,tilt_staircase,2024.2.4,None,2025-08-18 15h48.06.927580 -0400,
,,,0,0,0,,,,,,,,,,,,,,,,,,0,0,0,0,134.37628691690043,,,,,,,,,,,,,,,,,,,,,,,,,,,,,,,,,,,,,,,,,,,,,,,,,,,,,,,,,,,,,,,,,,negc_negs,30,-15,15,-15,"[5, 2, 1, 0.5]",lin,1,1,8,0,3,17,up,5,-5,-5,-30,134.36962420889176,134.37628691690043,134.86560458387248,134.86560458387248,134.93950937502086,134.93950937502086,134.93950937502086,135.82408195897005,1,,,,,,,,,,,,,,,gabriel,001,2025-08-18_15h47.50.623,tilt_staircase,2024.2.4,None,2025-08-18 15h48.06.927580 -0400,
,,,0,0,0,,,,,,,,,,,,,,,,,,0,0,0,0,135.8333299169317,,,,,,,,,,,,,,,,,,,,,,,,,,,,,,,,,,,,,,,,,,,,,,,,,,,,,,,,,,,,,,,,,,posc_poss,30,15,15,-15,"[5, 2, 1, 0.5]",lin,1,1,8,3,4,18,up,2,7,7,30,135.82580683403648,135.8333299169317,136.31567425001413,136.31567425001413,136.39995875000022,136.38788354187272,136.38788354187272,137.23577308398671,1,,,,,,,,,,,,,,,gabriel,001,2025-08-18_15h47.50.623,tilt_staircase,2024.2.4,None,2025-08-18 15h48.06.927580 -0400,
,,,0,0,0,,,,,,,,,,,,,,,,,,0,0,0,0,137.24442554195412,,,,,,,,,,,,,,,,,,,,,,,,,,,,,,,,,,,,,,,,,,,,,,,,,,,,,,,,,,,,,,,,,,negc_poss,30,-15,15,-15,"[5, 2, 1, 0.5]",lin,1,1,8,2,4,19,up,5,0,0,30,137.2372534170281,137.24442554195412,137.7322665839456,137.7322665839456,137.80635591689497,137.80635591689497,137.80635591689497,138.35177324991673,0,,,,,,,,,,,,,,,gabriel,001,2025-08-18_15h47.50.623,tilt_staircase,2024.2.4,None,2025-08-18 15h48.06.927580 -0400,
,,,0,0,0,,,,,,,,,,,,,,,,,,0,0,0,0,138.3599222500343,,,,,,,,,,,,,,,,,,,,,,,,,,,,,,,,,,,,,,,,,,,,,,,,,,,,,,,,,,,,,,,,,,posc_noss,30,15,15,-15,"[5, 2, 1, 0.5]",lin,1,1,8,5,4,20,down,5,0,0,,138.35321108391508,138.3599222500343,138.84912024997175,138.84912024997175,138.92262562504038,138.92262562504038,138.92262562504038,140.43568895896897,0,,,,,,,,,,,,,,,gabriel,001,2025-08-18_15h47.50.623,tilt_staircase,2024.2.4,None,2025-08-18 15h48.06.927580 -0400,
,,,0,0,0,,,,,,,,,,,,,,,,,,0,0,0,0,140.4440539169591,,,,,,,,,,,,,,,,,,,,,,,,,,,,,,,,,,,,,,,,,,,,,,,,,,,,,,,,,,,,,,,,,,posc_negs,30,15,15,-15,"[5, 2, 1, 0.5]",lin,1,1,8,1,4,21,down,5,0,0,-30,140.43690120894462,140.4440539169591,140.93337262491696,140.93337262491696,141.0061931668315,141.0061931668315,141.0061931668315,141.53305008402094,1,,,,,,,,,,,,,,,gabriel,001,2025-08-18_15h47.50.623,tilt_staircase,2024.2.4,None,2025-08-18 15h48.06.927580 -0400,
,,,0,0,0,,,,,,,,,,,,,,,,,,0,0,0,0,141.5385611669626,,,,,,,,,,,,,,,,,,,,,,,,,,,,,,,,,,,,,,,,,,,,,,,,,,,,,,,,,,,,,,,,,,negc_negs,30,-15,15,-15,"[5, 2, 1, 0.5]",lin,1,1,8,0,4,22,down,2,-7,-7,-30,141.5340543340426,141.5385611669626,142.0250319999177,142.0250319999177,142.10633170884103,142.10000274982303,142.10000274982303,142.81717583397403,0,,,,,,,,,,,,,,,gabriel,001,2025-08-18_15h47.50.623,tilt_staircase,2024.2.4,None,2025-08-18 15h48.06.927580 -0400,
,,,0,0,0,,,,,,,,,,,,,,,,,,0,0,0,0,142.82247308385558,,,,,,,,,,,,,,,,,,,,,,,,,,,,,,,,,,,,,,,,,,,,,,,,,,,,,,,,,,,,,,,,,,negc_noss,30,-15,15,-15,"[5, 2, 1, 0.5]",lin,1,1,8,4,4,23,up,5,0,0,,142.81815325003117,142.82247308385558,143.30828624987043,143.30828624987043,143.38934379187413,143.38322079204954,143.38322079204954,144.10201074997894,1,,,,,,,,,,,,,,,gabriel,001,2025-08-18_15h47.50.623,tilt_staircase,2024.2.4,None,2025-08-18 15h48.06.927580 -0400,
,,,0,0,0,,,,,,,,,,,,,,,,,,0,0,0,0,144.10997470887378,,,,,,,,,,,,,,,,,,,,,,,,,,,,,,,,,,,,,,,,,,,,,,,,,,,,,,,,,,,,,,,,,,posc_negs,30,15,15,-15,"[5, 2, 1, 0.5]",lin,1,1,8,1,5,24,down,5,-5,-5,-30,144.10325695900247,144.10997470887378,144.5988468748983,144.5988468748983,144.6727652088739,144.6727652088739,144.6727652088739,145.36899437499233,1,,,,,,,,,,,,,,,gabriel,001,2025-08-18_15h47.50.623,tilt_staircase,2024.2.4,None,2025-08-18 15h48.06.927580 -0400,
,,,0,0,0,,,,,,,,,,,,,,,,,,0,0,0,0,145.3773686250206,,,,,,,,,,,,,,,,,,,,,,,,,,,,,,,,,,,,,,,,,,,,,,,,,,,,,,,,,,,,,,,,,,negc_negs,30,-15,15,-15,"[5, 2, 1, 0.5]",lin,1,1,8,0,5,25,up,1,-6,-6,-30,145.37024504202418,145.3773686250206,145.86604070896283,145.86604070896283,145.939775750041,145.939775750041,145.939775750041,146.9087934589479,1,,,,,,,,,,,,,,,gabriel,001,2025-08-18_15h47.50.623,tilt_staircase,2024.2.4,None,2025-08-18 15h48.06.927580 -0400,
,,,0,0,0,,,,,,,,,,,,,,,,,,0,0,0,0,146.91683141700923,,,,,,,,,,,,,,,,,,,,,,,,,,,,,,,,,,,,,,,,,,,,,,,,,,,,,,,,,,,,,,,,,,negc_noss,30,-15,15,-15,"[5, 2, 1, 0.5]",lin,1,1,8,4,5,26,down,2,-2,-2,,146.9100946248509,146.91683141700923,147.40904024988413,147.40904024988413,147.4832816249691,147.4832816249691,147.4832816249691,147.9690499168355,0,,,,,,,,,,,,,,,gabriel,001,2025-08-18_15h47.50.623,tilt_staircase,2024.2.4,None,2025-08-18 15h48.06.927580 -0400,
,,,0,0,0,,,,,,,,,,,,,,,,,,0,0,0,0,147.9767966249492,,,,,,,,,,,,,,,,,,,,,,,,,,,,,,,,,,,,,,,,,,,,,,,,,,,,,,,,,,,,,,,,,,posc_noss,30,15,15,-15,"[5, 2, 1, 0.5]",lin,1,1,8,5,5,27,up,2,2,2,,147.97026870888658,147.9767966249492,148.46610408392735,148.46610408392735,148.5398499588482,148.5398499588482,148.5398499588482,149.08590520895086,1,,,,,,,,,,,,,,,gabriel,001,2025-08-18_15h47.50.623,tilt_staircase,2024.2.4,None,2025-08-18 15h48.06.927580 -0400,
,,,0,0,0,,,,,,,,,,,,,,,,,,0,0,0,0,149.09389362484217,,,,,,,,,,,,,,,,,,,,,,,,,,,,,,,,,,,,,,,,,,,,,,,,,,,,,,,,,,,,,,,,,,posc_poss,30,15,15,-15,"[5, 2, 1, 0.5]",lin,1,1,8,3,5,28,down,1,6,6,30,149.0872125418391,149.09389362484217,149.5832510839682,149.5832510839682,149.6560141670052,149.6560141670052,149.6560141670052,150.51859404193237,1,,,,,,,,,,,,,,,gabriel,001,2025-08-18_15h47.50.623,tilt_staircase,2024.2.4,None,2025-08-18 15h48.06.927580 -0400,
,,,0,0,0,,,,,,,,,,,,,,,,,,0,0,0,0,150.526622624835,,,,,,,,,,,,,,,,,,,,,,,,,,,,,,,,,,,,,,,,,,,,,,,,,,,,,,,,,,,,,,,,,,negc_poss,30,-15,15,-15,"[5, 2, 1, 0.5]",lin,1,1,8,2,5,29,up,5,5,5,30,150.51968574989587,150.526622624835,151.0156200840138,151.0156200840138,151.08836429193616,151.08836429193616,151.08836429193616,151.7853287088219,1,,,,,,,,,,,,,,,gabriel,001,2025-08-18_15h47.50.623,tilt_staircase,2024.2.4,None,2025-08-18 15h48.06.927580 -0400,
,,,0,0,0,,,,,,,,,,,,,,,,,,0,0,0,0,151.79355370881967,,,,,,,,,,,,,,,,,,,,,,,,,,,,,,,,,,,,,,,,,,,,,,,,,,,,,,,,,,,,,,,,,,negc_poss,30,-15,15,-15,"[5, 2, 1, 0.5]",lin,1,1,8,2,6,30,down,2,3,3,30,151.78649662504904,151.79355370881967,152.2823307090439,152.2823307090439,152.35563212493435,152.35563212493435,152.35563212493435,153.27319062501192,0,,,,,,,,,,,,,,,gabriel,001,2025-08-18_15h47.50.623,tilt_staircase,2024.2.4,None,2025-08-18 15h48.06.927580 -0400,
,,,0,0,0,,,,,,,,,,,,,,,,,,0,0,0,0,153.28210533387028,,,,,,,,,,,,,,,,,,,,,,,,,,,,,,,,,,,,,,,,,,,,,,,,,,,,,,,,,,,,,,,,,,negc_noss,30,-15,15,-15,"[5, 2, 1, 0.5]",lin,1,1,8,4,6,31,up,1,-1,-1,,153.27377187483944,153.28210533387028,153.77491095894948,153.77491095894948,153.84981149993837,153.84981149993837,153.84981149993837,154.41932762484066,0,,,,,,,,,,,,,,,gabriel,001,2025-08-18_15h47.50.623,tilt_staircase,2024.2.4,None,2025-08-18 15h48.06.927580 -0400,
,,,0,0,0,,,,,,,,,,,,,,,,,,0,0,0,0,154.42847404186614,,,,,,,,,,,,,,,,,,,,,,,,,,,,,,,,,,,,,,,,,,,,,,,,,,,,,,,,,,,,,,,,,,negc_negs,30,-15,15,-15,"[5, 2, 1, 0.5]",lin,1,1,8,0,6,32,down,0.5,-6.5,-6.5,-30,154.4210817499552,154.42847404186614,154.91575574991293,154.91575574991293,154.99012662493624,154.99012662493624,154.99012662493624,155.52431291691028,1,,,,,,,,,,,,,,,gabriel,001,2025-08-18_15h47.50.623,tilt_staircase,2024.2.4,None,2025-08-18 15h48.06.927580 -0400,
,,,0,0,0,,,,,,,,,,,,,,,,,,0,0,0,0,155.5326630838681,,,,,,,,,,,,,,,,,,,,,,,,,,,,,,,,,,,,,,,,,,,,,,,,,,,,,,,,,,,,,,,,,,posc_poss,30,15,15,-15,"[5, 2, 1, 0.5]",lin,1,1,8,3,6,33,down,1,5,5,30,155.52541454182938,155.5326630838681,156.02473274990916,156.02473274990916,156.09980516694486,156.09980516694486,156.09980516694486,156.67424879199825,0,,,,,,,,,,,,,,,gabriel,001,2025-08-18_15h47.50.623,tilt_staircase,2024.2.4,None,2025-08-18 15h48.06.927580 -0400,
,,,0,0,0,,,,,,,,,,,,,,,,,,0,0,0,0,156.6826684589032,,,,,,,,,,,,,,,,,,,,,,,,,,,,,,,,,,,,,,,,,,,,,,,,,,,,,,,,,,,,,,,,,,posc_negs,30,15,15,-15,"[5, 2, 1, 0.5]",lin,1,1,8,1,6,34,down,5,-10,-10,-30,156.67558312485926,156.6826684589032,157.17495454195887,157.17495454195887,157.24999074987136,157.24999074987136,157.24999074987136,157.80255745886825,0,,,,,,,,,,,,,,,gabriel,001,2025-08-18_15h47.50.623,tilt_staircase,2024.2.4,None,2025-08-18 15h48.06.927580 -0400,
,,,0,0,0,,,,,,,,,,,,,,,,,,0,0,0,0,157.81113341683522,,,,,,,,,,,,,,,,,,,,,,,,,,,,,,,,,,,,,,,,,,,,,,,,,,,,,,,,,,,,,,,,,,posc_noss,30,15,15,-15,"[5, 2, 1, 0.5]",lin,1,1,8,5,6,35,down,1,1,1,,157.8042727089487,157.81113341683522,158.29995920904912,158.29995920904912,158.37269295891747,158.37269295891747,158.37269295891747,158.84326970903203,1,,,,,,,,,,,,,,,gabriel,001,2025-08-18_15h47.50.623,tilt_staircase,2024.2.4,None,2025-08-18 15h48.06.927580 -0400,
,,,0,0,0,,,,,,,,,,,,,,,,,,0,0,0,0,158.84871691698208,,,,,,,,,,,,,,,,,,,,,,,,,,,,,,,,,,,,,,,,,,,,,,,,,,,,,,,,,,,,,,,,,,negc_noss,30,-15,15,-15,"[5, 2, 1, 0.5]",lin,1,1,8,4,7,36,up,1,0,0,,158.84429058386013,158.84871691698208,159.3420239170082,159.3420239170082,159.41646870900877,159.41646870900877,159.41646870900877,160.5515021670144,0,,,,,,,,,,,,,,,gabriel,001,2025-08-18_15h47.50.623,tilt_staircase,2024.2.4,None,2025-08-18 15h48.06.927580 -0400,
,,,0,0,0,,,,,,,,,,,,,,,,,,0,0,0,0,160.5592493750155,,,,,,,,,,,,,,,,,,,,,,,,,,,,,,,,,,,,,,,,,,,,,,,,,,,,,,,,,,,,,,,,,,negc_negs,30,-15,15,-15,"[5, 2, 1, 0.5]",lin,1,1,8,0,7,37,down,0.5,-7.0,-7.0,-30,160.5524999999907,160.5592493750155,161.04931958392262,161.04931958392262,161.12254608399235,161.12254608399235,161.12254608399235,162.7064278749749,0,,,,,,,,,,,,,,,gabriel,001,2025-08-18_15h47.50.623,tilt_staircase,2024.2.4,None,2025-08-18 15h48.06.927580 -0400,
,,,0,0,0,,,,,,,,,,,,,,,,,,0,0,0,0,162.71535833389498,,,,,,,,,,,,,,,,,,,,,,,,,,,,,,,,,,,,,,,,,,,,,,,,,,,,,,,,,,,,,,,,,,posc_noss,30,15,15,-15,"[5, 2, 1, 0.5]",lin,1,1,8,5,7,38,down,1,0,0,,162.70746045885608,162.71535833389498,163.21002295892686,163.21002295892686,163.28322141687386,163.2872307919897,163.2872307919897,164.06757504190318,1,,,,,,,,,,,,,,,gabriel,001,2025-08-18_15h47.50.623,tilt_staircase,2024.2.4,None,2025-08-18 15h48.06.927580 -0400,
,,,0,0,0,,,,,,,,,,,,,,,,,,0,0,0,0,164.07424933393486,,,,,,,,,,,,,,,,,,,,,,,,,,,,,,,,,,,,,,,,,,,,,,,,,,,,,,,,,,,,,,,,,,negc_poss,30,-15,15,-15,"[5, 2, 1, 0.5]",lin,1,1,8,2,7,39,up,1,4,4,30,164.06863937503658,164.07424933393486,164.56655383389443,164.56655383389443,164.63941754191183,164.63941754191183,164.63941754191183,165.43557941704057,0,,,,,,,,,,,,,,,gabriel,001,2025-08-18_15h47.50.623,tilt_staircase,2024.2.4,None,2025-08-18 15h48.06.927580 -0400,
,,,0,0,0,,,,,,,,,,,,,,,,,,0,0,0,0,165.4448392498307,,,,,,,,,,,,,,,,,,,,,,,,,,,,,,,,,,,,,,,,,,,,,,,,,,,,,,,,,,,,,,,,,,posc_poss,30,15,15,-15,"[5, 2, 1, 0.5]",lin,1,1,8,3,7,40,up,0.5,5.5,5.5,30,165.4369157499168,165.4448392498307,165.9322699168697,165.9322699168697,166.00638933386654,166.00638933386654,166.00638933386654,166.56676120893098,0,,,,,,,,,,,,,,,gabriel,001,2025-08-18_15h47.50.623,tilt_staircase,2024.2.4,None,2025-08-18 15h48.06.927580 -0400,
,,,0,0,0,,,,,,,,,,,,,,,,,,0,0,0,0,166.57139674993232,,,,,,,,,,,,,,,,,,,,,,,,,,,,,,,,,,,,,,,,,,,,,,,,,,,,,,,,,,,,,,,,,,posc_negs,30,15,15,-15,"[5, 2, 1, 0.5]",lin,1,1,8,1,7,41,up,2,-8,-8,-30,166.5676405839622,166.57139674993232,167.0582812919747,167.0582812919747,167.13704270892777,167.13704270892777,167.13704270892777,168.107544708997,0,,,,,,,,,,,,,,,gabriel,001,2025-08-18_15h47.50.623,tilt_staircase,2024.2.4,None,2025-08-18 15h48.06.927580 -0400,
,,,0,0,0,,,,,,,,,,,,,,,,,,0,0,0,0,168.116048166994,,,,,,,,,,,,,,,,,,,,,,,,,,,,,,,,,,,,,,,,,,,,,,,,,,,,,,,,,,,,,,,,,,posc_negs,30,15,15,-15,"[5, 2, 1, 0.5]",lin,1,1,8,1,8,42,up,2,-6,-6,-30,168.10868062498048,168.116048166994,168.608314541867,168.608314541867,168.68296624999493,168.68296624999493,168.68296624999493,169.2690734169446,0,,,,,,,,,,,,,,,gabriel,001,2025-08-18_15h47.50.623,tilt_staircase,2024.2.4,None,2025-08-18 15h48.06.927580 -0400,
,,,0,0,0,,,,,,,,,,,,,,,,,,0,0,0,0,169.27821595896967,,,,,,,,,,,,,,,,,,,,,,,,,,,,,,,,,,,,,,,,,,,,,,,,,,,,,,,,,,,,,,,,,,negc_poss,30,-15,15,-15,"[5, 2, 1, 0.5]",lin,1,1,8,2,8,43,up,1,5,5,30,169.27095479192212,169.27821595896967,169.76596195902675,169.76596195902675,169.83977337484248,169.83977337484248,169.83977337484248,170.45802116696723,1,,,,,,,,,,,,,,,gabriel,001,2025-08-18_15h47.50.623,tilt_staircase,2024.2.4,None,2025-08-18 15h48.06.927580 -0400,
,,,0,0,0,,,,,,,,,,,,,,,,,,0,0,0,0,170.46655216696672,,,,,,,,,,,,,,,,,,,,,,,,,,,,,,,,,,,,,,,,,,,,,,,,,,,,,,,,,,,,,,,,,,posc_noss,30,15,15,-15,"[5, 2, 1, 0.5]",lin,1,1,8,5,8,44,down,1,-1,-1,,170.4593394168187,170.46655216696672,170.95824950002134,170.95824950002134,171.03356045903638,171.03356045903638,171.03356045903638,172.3617019590456,0,,,,,,,,,,,,,,,gabriel,001,2025-08-18_15h47.50.623,tilt_staircase,2024.2.4,None,2025-08-18 15h48.06.927580 -0400,
,,,0,0,0,,,,,,,,,,,,,,,,,,0,0,0,0,172.3831726249773,,,,,,,,,,,,,,,,,,,,,,,,,,,,,,,,,,,,,,,,,,,,,,,,,,,,,,,,,,,,,,,,,,negc_noss,30,-15,15,-15,"[5, 2, 1, 0.5]",lin,1,1,8,4,8,45,up,1,1,1,,172.36276137502864,172.3831726249773,172.8584204588551,172.8584204588551,172.93962991703302,172.93369312491268,172.93369312491268,173.51866633398458,1,,,,,,,,,,,,,,,gabriel,001,2025-08-18_15h47.50.623,tilt_staircase,2024.2.4,None,2025-08-18 15h48.06.927580 -0400,
,,,0,0,0,,,,,,,,,,,,,,,,,,0,0,0,0,173.52716195886023,,,,,,,,,,,,,,,,,,,,,,,,,,,,,,,,,,,,,,,,,,,,,,,,,,,,,,,,,,,,,,,,,,negc_negs,30,-15,15,-15,"[5, 2, 1, 0.5]",lin,1,1,8,0,8,46,up,0.5,-6.5,-6.5,-30,173.52008470892906,173.52716195886023,174.01541608385742,174.01541608385742,174.09141541691497,174.09141541691497,174.09141541691497,175.38572516688146,0,,,,,,,,,,,,,,,gabriel,001,2025-08-18_15h47.50.623,tilt_staircase,2024.2.4,None,2025-08-18 15h48.06.927580 -0400,
,,,0,0,0,,,,,,,,,,,,,,,,,,0,0,0,0,175.39382608397864,,,,,,,,,,,,,,,,,,,,,,,,,,,,,,,,,,,,,,,,,,,,,,,,,,,,,,,,,,,,,,,,,,posc_poss,30,15,15,-15,"[5, 2, 1, 0.5]",lin,1,1,8,3,8,47,up,0.5,6.0,6.0,30,175.38694995897822,175.39382608397864,175.88215533387847,175.88215533387847,175.95599749987014,175.95599749987014,175.95599749987014,176.6609869590029,1,,,,,,,,,,,,,,,gabriel,001,2025-08-18_15h47.50.623,tilt_staircase,2024.2.4,None,2025-08-18 15h48.06.927580 -0400,
,,,0,0,0,,,,,,,,,,,,,,,,,,0,0,0,0,176.66657020896673,,,,,,,,,,,,,,,,,,,,,,,,,,,,,,,,,,,,,,,,,,,,,,,,,,,,,,,,,,,,,,,,,,negc_negs,30,-15,15,-15,"[5, 2, 1, 0.5]",lin,1,1,8,0,9,48,up,0.5,-6.0,-6.0,-30,176.66210491699167,176.66657020896673,177.1583552090451,177.1583552090451,177.23975833388977,177.23320604185574,177.23320604185574,178.2186682089232,1,,,,,,,,,,,,,,,gabriel,001,2025-08-18_15h47.50.623,tilt_staircase,2024.2.4,None,2025-08-18 15h48.06.927580 -0400,
,,,0,0,0,,,,,,,,,,,,,,,,,,0,0,0,0,178.2273753338959,,,,,,,,,,,,,,,,,,,,,,,,,,,,,,,,,,,,,,,,,,,,,,,,,,,,,,,,,,,,,,,,,,posc_noss,30,15,15,-15,"[5, 2, 1, 0.5]",lin,1,1,8,5,9,49,up,0.5,-0.5,-0.5,,178.22034600004554,178.2273753338959,178.71539870882407,178.71539870882407,178.78946783393621,178.78946783393621,178.78946783393621,180.20208120904863,0,,,,,,,,,,,,,,,gabriel,001,2025-08-18_15h47.50.623,tilt_staircase,2024.2.4,None,2025-08-18 15h48.06.927580 -0400,
,,,0,0,0,,,,,,,,,,,,,,,,,,0,0,0,0,180.21053741686046,,,,,,,,,,,,,,,,,,,,,,,,,,,,,,,,,,,,,,,,,,,,,,,,,,,,,,,,,,,,,,,,,,posc_poss,30,15,15,-15,"[5, 2, 1, 0.5]",lin,1,1,8,3,9,50,down,0.5,5.5,5.5,30,180.20367004186846,180.21053741686046,180.6986924589146,180.6986924589146,180.76893570902757,180.76893570902757,180.76893570902757,181.7915965418797,1,,,,,,,,,,,,,,,gabriel,001,2025-08-18_15h47.50.623,tilt_staircase,2024.2.4,None,2025-08-18 15h48.06.927580 -0400,
,,,0,0,0,,,,,,,,,,,,,,,,,,0,0,0,0,181.79883383400738,,,,,,,,,,,,,,,,,,,,,,,,,,,,,,,,,,,,,,,,,,,,,,,,,,,,,,,,,,,,,,,,,,negc_poss,30,-15,15,-15,"[5, 2, 1, 0.5]",lin,1,1,8,2,9,51,down,0.5,4.5,4.5,30,181.79225304187275,181.79883383400738,182.28777016699314,182.28777016699314,182.37065829196945,182.36576704191975,182.36576704191975,183.18837091699243,0,,,,,,,,,,,,,,,gabriel,001,2025-08-18_15h47.50.623,tilt_staircase,2024.2.4,None,2025-08-18 15h48.06.927580 -0400,
,,,0,0,0,,,,,,,,,,,,,,,,,,0,0,0,0,183.1990864588879,,,,,,,,,,,,,,,,,,,,,,,,,,,,,,,,,,,,,,,,,,,,,,,,,,,,,,,,,,,,,,,,,,negc_noss,30,-15,15,-15,"[5, 2, 1, 0.5]",lin,1,1,8,4,9,52,down,0.5,0.5,0.5,,183.18905783398077,183.1990864588879,183.6886642088648,183.6886642088648,183.76547999982722,183.76547999982722,183.76547999982722,184.50127745885402,1,,,,,,,,,,,,,,,gabriel,001,2025-08-18_15h47.50.623,tilt_staircase,2024.2.4,None,2025-08-18 15h48.06.927580 -0400,
,,,0,0,0,,,,,,,,,,,,,,,,,,0,0,0,0,184.50696141691878,,,,,,,,,,,,,,,,,,,,,,,,,,,,,,,,,,,,,,,,,,,,,,,,,,,,,,,,,,,,,,,,,,posc_negs,30,15,15,-15,"[5, 2, 1, 0.5]",lin,1,1,8,1,9,53,up,2,-4,-4,-30,184.50233462499455,184.50696141691878,184.999722833978,184.999722833978,185.07251070882194,185.07251070882194,185.07251070882194,185.70832970901392,1,,,,,,,,,,,,,,,gabriel,001,2025-08-18_15h47.50.623,tilt_staircase,2024.2.4,None,2025-08-18 15h48.06.927580 -0400,
,,,0,0,0,,,,,,,,,,,,,,,,,,0,0,0,0,185.7331771249883,,,,,,,,,,,,,,,,,,,,,,,,,,,,,,,,,,,,,,,,,,,,,,,,,,,,,,,,,,,,,,,,,,posc_noss,30,15,15,-15,"[5, 2, 1, 0.5]",lin,1,1,8,5,10,54,up,0.5,0.0,0.0,,185.70976545894518,185.7331771249883,186.2083802500274,186.2083802500274,186.28312141704373,186.28312141704373,186.28312141704373,186.96847449988127,1,,,,,,,,,,,,,,,gabriel,001,2025-08-18_15h47.50.623,tilt_staircase,2024.2.4,None,2025-08-18 15h48.06.927580 -0400,
,,,0,0,0,,,,,,,,,,,,,,,,,,0,0,0,0,186.97709416691214,,,,,,,,,,,,,,,,,,,,,,,,,,,,,,,,,,,,,,,,,,,,,,,,,,,,,,,,,,,,,,,,,,negc_noss,30,-15,15,-15,"[5, 2, 1, 0.5]",lin,1,1,8,4,10,55,down,0.5,0.0,0.0,,186.97005829191767,186.97709416691214,187.46563983382657,187.46563983382657,187.53988416702487,187.53988416702487,187.53988416702487,188.15245554200374,1,,,,,,,,,,,,,,,gabriel,001,2025-08-18_15h47.50.623,tilt_staircase,2024.2.4,None,2025-08-18 15h48.06.927580 -0400,
,,,0,0,0,,,,,,,,,,,,,,,,,,0,0,0,0,188.16136037488468,,,,,,,,,,,,,,,,,,,,,,,,,,,,,,,,,,,,,,,,,,,,,,,,,,,,,,,,,,,,,,,,,,posc_poss,30,15,15,-15,"[5, 2, 1, 0.5]",lin,1,1,8,3,10,56,down,0.5,5.0,5.0,30,188.15417854185216,188.16136037488468,188.64990795892663,188.64990795892663,188.72251358395442,188.72251358395442,188.72251358395442,189.59114374988712,1,,,,,,,,,,,,,,,gabriel,001,2025-08-18_15h47.50.623,tilt_staircase,2024.2.4,None,2025-08-18 15h48.06.927580 -0400,
,,,0,0,0,,,,,,,,,,,,,,,,,,0,0,0,0,189.59974474995397,,,,,,,,,,,,,,,,,,,,,,,,,,,,,,,,,,,,,,,,,,,,,,,,,,,,,,,,,,,,,,,,,,negc_negs,30,-15,15,-15,"[5, 2, 1, 0.5]",lin,1,1,8,0,10,57,down,0.5,-6.5,-6.5,-30,189.59235395886935,189.59974474995397,190.0929076669272,190.0929076669272,190.166435000021,190.166435000021,190.166435000021,190.91836087498814,0,,,,,,,,,,,,,,,gabriel,001,2025-08-18_15h47.50.623,tilt_staircase,2024.2.4,None,2025-08-18 15h48.06.927580 -0400,
,,,0,0,0,,,,,,,,,,,,,,,,,,0,0,0,0,190.92658366682008,,,,,,,,,,,,,,,,,,,,,,,,,,,,,,,,,,,,,,,,,,,,,,,,,,,,,,,,,,,,,,,,,,negc_poss,30,-15,15,-15,"[5, 2, 1, 0.5]",lin,1,1,8,2,10,58,up,0.5,5.0,5.0,30,190.91949562495574,190.92658366682008,191.41665841685608,191.41665841685608,191.4889820839744,191.4889820839744,191.4889820839744,192.6740944168996,0,,,,,,,,,,,,,,,gabriel,001,2025-08-18_15h47.50.623,tilt_staircase,2024.2.4,None,2025-08-18 15h48.06.927580 -0400,
,,,0,0,0,,,,,,,,,,,,,,,,,,0,0,0,0,192.69981308397837,,,,,,,,,,,,,,,,,,,,,,,,,,,,,,,,,,,,,,,,,,,,,,,,,,,,,,,,,,,,,,,,,,posc_negs,30,15,15,-15,"[5, 2, 1, 0.5]",lin,1,1,8,1,10,59,down,1,-5,-5,-30,192.67542383400723,192.69981308397837,193.17568824999034,193.17568824999034,193.24968554195948,193.24968554195948,193.24968554195948,194.60014349990524,1,,,,,,,,,,,,,,,gabriel,001,2025-08-18_15h47.50.623,tilt_staircase,2024.2.4,None,2025-08-18 15h48.06.927580 -0400,
,,,0,0,0,,,,,,,,,,,,,,,,,,0,0,0,0,194.60538858384825,,,,,,,,,,,,,,,,,,,,,,,,,,,,,,,,,,,,,,,,,,,,,,,,,,,,,,,,,,,,,,,,,,negc_poss,30,-15,15,-15,"[5, 2, 1, 0.5]",lin,1,1,8,2,11,60,up,0.5,5.5,5.5,30,194.60111737484112,194.60538858384825,195.09149841684848,195.09149841684848,195.1705680838786,195.16558795887977,195.16558795887977,196.93571408395655,1,,,,,,,,,,,,,,,gabriel,001,2025-08-18_15h47.50.623,tilt_staircase,2024.2.4,None,2025-08-18 15h48.06.927580 -0400,
,,,0,0,0,,,,,,,,,,,,,,,,,,0,0,0,0,196.94471791689284,,,,,,,,,,,,,,,,,,,,,,,,,,,,,,,,,,,,,,,,,,,,,,,,,,,,,,,,,,,,,,,,,,posc_poss,30,15,15,-15,"[5, 2, 1, 0.5]",lin,1,1,8,3,11,61,down,0.5,4.5,4.5,30,196.9374665839132,196.94471791689284,197.4326239589136,197.4326239589136,197.5061084998306,197.5061084998306,197.5061084998306,198.2680854590144,1,,,,,,,,,,,,,,,gabriel,001,2025-08-18_15h47.50.623,tilt_staircase,2024.2.4,None,2025-08-18 15h48.06.927580 -0400,
,,,0,0,0,,,,,,,,,,,,,,,,,,0,0,0,0,198.27622612495907,,,,,,,,,,,,,,,,,,,,,,,,,,,,,,,,,,,,,,,,,,,,,,,,,,,,,,,,,,,,,,,,,,posc_noss,30,15,15,-15,"[5, 2, 1, 0.5]",lin,1,1,8,5,11,62,down,0.5,-0.5,-0.5,,198.26922362484038,198.27622612495907,198.76532208384015,198.76532208384015,198.83965804195032,198.83965804195032,198.83965804195032,199.5911482500378,1,,,,,,,,,,,,,,,gabriel,001,2025-08-18_15h47.50.623,tilt_staircase,2024.2.4,None,2025-08-18 15h48.06.927580 -0400,
,,,0,0,0,,,,,,,,,,,,,,,,,,0,0,0,0,199.59946562489495,,,,,,,,,,,,,,,,,,,,,,,,,,,,,,,,,,,,,,,,,,,,,,,,,,,,,,,,,,,,,,,,,,negc_noss,30,-15,15,-15,"[5, 2, 1, 0.5]",lin,1,1,8,4,11,63,down,0.5,-0.5,-0.5,,199.59219141700305,199.59946562489495,200.09152899985202,200.09152899985202,200.16695262491703,200.16695262491703,200.16695262491703,200.9514427089598,0,,,,,,,,,,,,,,,gabriel,001,2025-08-18_15h47.50.623,tilt_staircase,2024.2.4,None,2025-08-18 15h48.06.927580 -0400,
,,,0,0,0,,,,,,,,,,,,,,,,,,0,0,0,0,200.95993762486614,,,,,,,,,,,,,,,,,,,,,,,,,,,,,,,,,,,,,,,,,,,,,,,,,,,,,,,,,,,,,,,,,,negc_negs,30,-15,15,-15,"[5, 2, 1, 0.5]",lin,1,1,8,0,11,64,up,0.5,-6.0,-6.0,-30,200.95278125000186,200.95993762486614,201.44927833392285,201.44927833392285,201.5225555000361,201.5225555000361,201.5225555000361,202.5903656249866,1,,,,,,,,,,,,,,,gabriel,001,2025-08-18_15h47.50.623,tilt_staircase,2024.2.4,None,2025-08-18 15h48.06.927580 -0400,
,,,0,0,0,,,,,,,,,,,,,,,,,,0,0,0,0,202.59872095892206,,,,,,,,,,,,,,,,,,,,,,,,,,,,,,,,,,,,,,,,,,,,,,,,,,,,,,,,,,,,,,,,,,posc_negs,30,15,15,-15,"[5, 2, 1, 0.5]",lin,1,1,8,1,11,65,down,1,-6,-6,-30,202.59139641700312,202.59872095892206,203.09181204182096,203.09181204182096,203.16635979199782,203.16635979199782,203.16635979199782,204.01891941693611,0,,,,,,,,,,,,,,,gabriel,001,2025-08-18_15h47.50.623,tilt_staircase,2024.2.4,None,2025-08-18 15h48.06.927580 -0400,
,,,0,0,0,,,,,,,,,,,,,,,,,,0,0,0,0,204.02764054201543,,,,,,,,,,,,,,,,,,,,,,,,,,,,,,,,,,,,,,,,,,,,,,,,,,,,,,,,,,,,,,,,,,posc_negs,30,15,15,-15,"[5, 2, 1, 0.5]",lin,1,1,8,1,12,66,up,0.5,-5.5,-5.5,-30,204.02083808393218,204.02764054201543,204.51543870894238,204.51543870894238,204.58923795889132,204.58923795889132,204.58923795889132,205.88507124991156,1,,,,,,,,,,,,,,,gabriel,001,2025-08-18_15h47.50.623,tilt_staircase,2024.2.4,None,2025-08-18 15h48.06.927580 -0400,
,,,0,0,0,,,,,,,,,,,,,,,,,,0,0,0,0,205.89312283392064,,,,,,,,,,,,,,,,,,,,,,,,,,,,,,,,,,,,,,,,,,,,,,,,,,,,,,,,,,,,,,,,,,negc_noss,30,-15,15,-15,"[5, 2, 1, 0.5]",lin,1,1,8,4,12,67,up,0.5,0.0,0.0,,205.88612116687,205.89312283392064,206.38209258392453,206.38209258392453,206.455637749983,206.455637749983,206.455637749983,207.20159608405083,0,,,,,,,,,,,,,,,gabriel,001,2025-08-18_15h47.50.623,tilt_staircase,2024.2.4,None,2025-08-18 15h48.06.927580 -0400,
,,,0,0,0,,,,,,,,,,,,,,,,,,0,0,0,0,207.20971891703084,,,,,,,,,,,,,,,,,,,,,,,,,,,,,,,,,,,,,,,,,,,,,,,,,,,,,,,,,,,,,,,,,,negc_poss,30,-15,15,-15,"[5, 2, 1, 0.5]",lin,1,1,8,2,12,68,down,0.5,5.0,5.0,30,207.2026879999321,207.20971891703084,207.69864624994807,207.69864624994807,207.77277133404277,207.77277133404277,207.77277133404277,208.86891191685572,1,,,,,,,,,,,,,,,gabriel,001,2025-08-18_15h47.50.623,tilt_staircase,2024.2.4,None,2025-08-18 15h48.06.927580 -0400,
,,,0,0,0,,,,,,,,,,,,,,,,,,0,0,0,0,208.87777708400972,,,,,,,,,,,,,,,,,,,,,,,,,,,,,,,,,,,,,,,,,,,,,,,,,,,,,,,,,,,,,,,,,,posc_noss,30,15,15,-15,"[5, 2, 1, 0.5]",lin,1,1,8,5,12,69,down,0.5,-1.0,-1.0,,208.87056683399715,208.87777708400972,209.36584795895033,209.36584795895033,209.4397892500274,209.4397892500274,209.4397892500274,210.7772003749851,0,,,,,,,,,,,,,,,gabriel,001,2025-08-18_15h47.50.623,tilt_staircase,2024.2.4,None,2025-08-18 15h48.06.927580 -0400,
,,,0,0,0,,,,,,,,,,,,,,,,,,0,0,0,0,210.7828338749241,,,,,,,,,,,,,,,,,,,,,,,,,,,,,,,,,,,,,,,,,,,,,,,,,,,,,,,,,,,,,,,,,,negc_negs,30,-15,15,-15,"[5, 2, 1, 0.5]",lin,1,1,8,0,12,70,down,0.5,-6.5,-6.5,-30,210.77838254184462,210.7828338749241,211.2747272499837,211.2747272499837,211.35607016691938,211.34973183390684,211.34973183390684,212.47673208382912,0,,,,,,,,,,,,,,,gabriel,001,2025-08-18_15h47.50.623,tilt_staircase,2024.2.4,None,2025-08-18 15h48.06.927580 -0400,
,,,0,0,0,,,,,,,,,,,,,,,,,,0,0,0,0,212.48226920887828,,,,,,,,,,,,,,,,,,,,,,,,,,,,,,,,,,,,,,,,,,,,,,,,,,,,,,,,,,,,,,,,,,posc_poss,30,15,15,-15,"[5, 2, 1, 0.5]",lin,1,1,8,3,12,71,down,0.5,4.0,4.0,30,212.4778239999432,212.48226920887828,212.97576979198493,212.97576979198493,213.0500901248306,213.0500901248306,213.0500901248306,214.55189262493514,1,,,,,,,,,,,,,,,gabriel,001,2025-08-18_15h47.50.623,tilt_staircase,2024.2.4,None,2025-08-18 15h48.06.927580 -0400,
,,,0,0,0,,,,,,,,,,,,,,,,,,0,0,0,0,214.56092504202388,,,,,,,,,,,,,,,,,,,,,,,,,,,,,,,,,,,,,,,,,,,,,,,,,,,,,,,,,,,,,,,,,,negc_negs,30,-15,15,-15,"[5, 2, 1, 0.5]",lin,1,1,8,0,13,72,up,0.5,-6.0,-6.0,-30,214.553598041879,214.56092504202388,215.0492085418664,215.0492085418664,215.12240283400752,215.12240283400752,215.12240283400752,216.2689628340304,1,,,,,,,,,,,,,,,gabriel,001,2025-08-18_15h47.50.623,tilt_staircase,2024.2.4,None,2025-08-18 15h48.06.927580 -0400,
,,,0,0,0,,,,,,,,,,,,,,,,,,0,0,0,0,216.27695887489244,,,,,,,,,,,,,,,,,,,,,,,,,,,,,,,,,,,,,,,,,,,,,,,,,,,,,,,,,,,,,,,,,,negc_poss,30,-15,15,-15,"[5, 2, 1, 0.5]",lin,1,1,8,2,13,73,down,0.5,4.5,4.5,30,216.27009533392265,216.27695887489244,216.76537404186092,216.76537404186092,216.83951070904732,216.83951070904732,216.83951070904732,217.89097191696055,0,,,,,,,,,,,,,,,gabriel,001,2025-08-18_15h47.50.623,tilt_staircase,2024.2.4,None,2025-08-18 15h48.06.927580 -0400,
,,,0,0,0,,,,,,,,,,,,,,,,,,0,0,0,0,217.89927533385344,,,,,,,,,,,,,,,,,,,,,,,,,,,,,,,,,,,,,,,,,,,,,,,,,,,,,,,,,,,,,,,,,,posc_poss,30,15,15,-15,"[5, 2, 1, 0.5]",lin,1,1,8,3,13,74,down,0.5,3.5,3.5,30,217.89225524989888,217.89927533385344,218.39155645901337,218.39155645901337,218.46632691682316,218.46632691682316,218.46632691682316,219.52440041699447,0,,,,,,,,,,,,,,,gabriel,001,2025-08-18_15h47.50.623,tilt_staircase,2024.2.4,None,2025-08-18 15h48.06.927580 -0400,
,,,0,0,0,,,,,,,,,,,,,,,,,,0,0,0,0,219.53266374999657,,,,,,,,,,,,,,,,,,,,,,,,,,,,,,,,,,,,,,,,,,,,,,,,,,,,,,,,,,,,,,,,,,posc_noss,30,15,15,-15,"[5, 2, 1, 0.5]",lin,1,1,8,5,13,75,up,0.5,-0.5,-0.5,,219.52573012490757,219.53266374999657,220.02513770898804,220.02513770898804,220.0996942089405,220.0996942089405,220.0996942089405,221.41768829198554,0,,,,,,,,,,,,,,,gabriel,001,2025-08-18_15h47.50.623,tilt_staircase,2024.2.4,None,2025-08-18 15h48.06.927580 -0400,
,,,0,0,0,,,,,,,,,,,,,,,,,,0,0,0,0,221.42535499995574,,,,,,,,,,,,,,,,,,,,,,,,,,,,,,,,,,,,,,,,,,,,,,,,,,,,,,,,,,,,,,,,,,posc_negs,30,15,15,-15,"[5, 2, 1, 0.5]",lin,1,1,8,1,13,76,down,0.5,-6.0,-6.0,-30,221.41870479192585,221.42535499995574,221.9162175420206,221.9162175420206,221.9895530838985,221.9895530838985,221.9895530838985,223.00663600000553,0,,,,,,,,,,,,,,,gabriel,001,2025-08-18_15h47.50.623,tilt_staircase,2024.2.4,None,2025-08-18 15h48.06.927580 -0400,
,,,0,0,0,,,,,,,,,,,,,,,,,,0,0,0,0,223.01520091691054,,,,,,,,,,,,,,,,,,,,,,,,,,,,,,,,,,,,,,,,,,,,,,,,,,,,,,,,,,,,,,,,,,negc_noss,30,-15,15,-15,"[5, 2, 1, 0.5]",lin,1,1,8,4,13,77,up,0.5,0.5,0.5,,223.0076197090093,223.01520091691054,223.49872879195027,223.49872879195027,223.58311795885675,223.57166637503542,223.57166637503542,224.8512321668677,1,,,,,,,,,,,,,,,gabriel,001,2025-08-18_15h47.50.623,tilt_staircase,2024.2.4,None,2025-08-18 15h48.06.927580 -0400,
,,,0,0,0,,,,,,,,,,,,,,,,,,0,0,0,0,224.8586707499344,,,,,,,,,,,,,,,,,,,,,,,,,,,,,,,,,,,,,,,,,,,,,,,,,,,,,,,,,,,,,,,,,,posc_noss,30,15,15,-15,"[5, 2, 1, 0.5]",lin,1,1,8,5,14,78,up,0.5,0.0,0.0,,224.85222524986602,224.8586707499344,225.34931612503715,225.34931612503715,225.42246958403848,225.42246958403848,225.42246958403848,226.63560129189864,0,,,,,,,,,,,,,,,gabriel,001,2025-08-18_15h47.50.623,tilt_staircase,2024.2.4,None,2025-08-18 15h48.06.927580 -0400,
,,,0,0,0,,,,,,,,,,,,,,,,,,0,0,0,0,226.64530470897444,,,,,,,,,,,,,,,,,,,,,,,,,,,,,,,,,,,,,,,,,,,,,,,,,,,,,,,,,,,,,,,,,,negc_negs,30,-15,15,-15,"[5, 2, 1, 0.5]",lin,1,1,8,0,14,79,down,0.5,-6.5,-6.5,-30,226.6377666669432,226.64530470897444,227.132950542029,227.132950542029,227.20478345896117,227.20478345896117,227.20478345896117,228.00207020901144,1,,,,,,,,,,,,,,,gabriel,001,2025-08-18_15h47.50.623,tilt_staircase,2024.2.4,None,2025-08-18 15h48.06.927580 -0400,
,,,0,0,0,,,,,,,,,,,,,,,,,,0,0,0,0,228.01061849994585,,,,,,,,,,,,,,,,,,,,,,,,,,,,,,,,,,,,,,,,,,,,,,,,,,,,,,,,,,,,,,,,,,negc_poss,30,-15,15,-15,"[5, 2, 1, 0.5]",lin,1,1,8,2,14,80,up,0.5,5.0,5.0,30,228.00352658401243,228.01061849994585,228.49881458398886,228.49881458398886,228.57339820894413,228.57339820894413,228.57339820894413,230.67748637497425,0,,,,,,,,,,,,,,,gabriel,001,2025-08-18_15h47.50.623,tilt_staircase,2024.2.4,None,2025-08-18 15h48.06.927580 -0400,
,,,0,0,0,,,,,,,,,,,,,,,,,,0,0,0,0,230.68288004188798,,,,,,,,,,,,,,,,,,,,,,,,,,,,,,,,,,,,,,,,,,,,,,,,,,,,,,,,,,,,,,,,,,posc_poss,30,15,15,-15,"[5, 2, 1, 0.5]",lin,1,1,8,3,14,81,up,0.5,4.0,4.0,30,230.67852699989453,230.68288004188798,231.17560037504882,231.17560037504882,231.25584795884788,231.24972220882773,231.24972220882773,232.02464541699737,0,,,,,,,,,,,,,,,gabriel,001,2025-08-18_15h47.50.623,tilt_staircase,2024.2.4,None,2025-08-18 15h48.06.927580 -0400,
,,,0,0,0,,,,,,,,,,,,,,,,,,0,0,0,0,232.03314304188825,,,,,,,,,,,,,,,,,,,,,,,,,,,,,,,,,,,,,,,,,,,,,,,,,,,,,,,,,,,,,,,,,,negc_noss,30,-15,15,-15,"[5, 2, 1, 0.5]",lin,1,1,8,4,14,82,down,0.5,0.0,0.0,,232.02586187492125,232.03314304188825,232.52591241686605,232.52591241686605,232.60009387484752,232.60009387484752,232.60009387484752,233.47756991698407,0,,,,,,,,,,,,,,,gabriel,001,2025-08-18_15h47.50.623,tilt_staircase,2024.2.4,None,2025-08-18 15h48.06.927580 -0400,
,,,0,0,0,,,,,,,,,,,,,,,,,,0,0,0,0,233.4996275419835,,,,,,,,,,,,,,,,,,,,,,,,,,,,,,,,,,,,,,,,,,,,,,,,,,,,,,,,,,,,,,,,,,posc_negs,30,15,15,-15,"[5, 2, 1, 0.5]",lin,1,1,8,1,14,83,up,0.5,-5.5,-5.5,-30,233.47870479198173,233.4996275419835,233.97575320885517,233.97575320885517,234.0565649168566,234.05000095884316,234.05000095884316,234.91965016699396,1,,,,,,,,,,,,,,,gabriel,001,2025-08-18_15h47.50.623,tilt_staircase,2024.2.4,None,2025-08-18 15h48.06.927580 -0400,
,,,0,0,0,,,,,,,,,,,,,,,,,,0,0,0,0,234.92783820885234,,,,,,,,,,,,,,,,,,,,,,,,,,,,,,,,,,,,,,,,,,,,,,,,,,,,,,,,,,,,,,,,,,negc_noss,30,-15,15,-15,"[5, 2, 1, 0.5]",lin,1,1,8,4,15,84,up,0.5,0.5,0.5,,234.92088266694918,234.92783820885234,235.4152976248879,235.4152976248879,235.4890582920052,235.4890582920052,235.4890582920052,236.60187925002538,1,,,,,,,,,,,,,,,gabriel,001,2025-08-18_15h47.50.623,tilt_staircase,2024.2.4,None,2025-08-18 15h48.06.927580 -0400,
,,,0,0,0,,,,,,,,,,,,,,,,,,0,0,0,0,236.6103227918502,,,,,,,,,,,,,,,,,,,,,,,,,,,,,,,,,,,,,,,,,,,,,,,,,,,,,,,,,,,,,,,,,,negc_poss,30,-15,15,-15,"[5, 2, 1, 0.5]",lin,1,1,8,2,15,85,up,0.5,5.5,5.5,30,236.6033988748677,236.6103227918502,237.099437084049,237.099437084049,237.17249270901084,237.17249270901084,237.17249270901084,237.8101895840373,0,,,,,,,,,,,,,,,gabriel,001,2025-08-18_15h47.50.623,tilt_staircase,2024.2.4,None,2025-08-18 15h48.06.927580 -0400,
,,,0,0,0,,,,,,,,,,,,,,,,,,0,0,0,0,237.8157796249725,,,,,,,,,,,,,,,,,,,,,,,,,,,,,,,,,,,,,,,,,,,,,,,,,,,,,,,,,,,,,,,,,,posc_poss,30,15,15,-15,"[5, 2, 1, 0.5]",lin,1,1,8,3,15,86,up,0.5,4.5,4.5,30,237.81122287502512,237.8157796249725,238.30814429186285,238.30814429186285,238.38973804190755,238.38333674985915,238.38333674985915,239.25724479183555,0,,,,,,,,,,,,,,,gabriel,001,2025-08-18_15h47.50.623,tilt_staircase,2024.2.4,None,2025-08-18 15h48.06.927580 -0400,
,,,0,0,0,,,,,,,,,,,,,,,,,,0,0,0,0,239.26526062493213,,,,,,,,,,,,,,,,,,,,,,,,,,,,,,,,,,,,,,,,,,,,,,,,,,,,,,,,,,,,,,,,,,negc_negs,30,-15,15,-15,"[5, 2, 1, 0.5]",lin,1,1,8,0,15,87,down,0.5,-7.0,-7.0,-30,239.25827437499538,239.26526062493213,239.75854912493378,239.75854912493378,239.83331670891494,239.83331670891494,239.83331670891494,240.61884645884857,0,,,,,,,,,,,,,,,gabriel,001,2025-08-18_15h47.50.623,tilt_staircase,2024.2.4,None,2025-08-18 15h48.06.927580 -0400,
,,,0,0,0,,,,,,,,,,,,,,,,,,0,0,0,0,240.62716058385558,,,,,,,,,,,,,,,,,,,,,,,,,,,,,,,,,,,,,,,,,,,,,,,,,,,,,,,,,,,,,,,,,,posc_noss,30,15,15,-15,"[5, 2, 1, 0.5]",lin,1,1,8,5,15,88,up,0.5,0.5,0.5,,240.62031274987385,240.62716058385558,241.1155207499396,241.1155207499396,241.18974183383398,241.18974183383398,241.18974183383398,242.10620629182085,1,,,,,,,,,,,,,,,gabriel,001,2025-08-18_15h47.50.623,tilt_staircase,2024.2.4,None,2025-08-18 15h48.06.927580 -0400,
,,,0,0,0,,,,,,,,,,,,,,,,,,0,0,0,0,242.11526620900258,,,,,,,,,,,,,,,,,,,,,,,,,,,,,,,,,,,,,,,,,,,,,,,,,,,,,,,,,,,,,,,,,,posc_negs,30,15,15,-15,"[5, 2, 1, 0.5]",lin,1,1,8,1,15,89,down,0.5,-6.0,-6.0,-30,242.1070892920252,242.11526620900258,242.6066854170058,242.6066854170058,242.68325600004755,242.68325600004755,242.68325600004755,244.1245474999305,0,,,,,,,,,,,,,,,gabriel,001,2025-08-18_15h47.50.623,tilt_staircase,2024.2.4,None,2025-08-18 15h48.06.927580 -0400,
,,,0,0,0,,,,,,,,,,,,,,,,,,0,0,0,0,244.13247141684406,,,,,,,,,,,,,,,,,,,,,,,,,,,,,,,,,,,,,,,,,,,,,,,,,,,,,,,,,,,,,,,,,,negc_poss,30,-15,15,-15,"[5, 2, 1, 0.5]",lin,1,1,8,2,16,90,up,0.5,6.0,6.0,30,244.12567995884456,244.13247141684406,244.62251058383845,244.62251058383845,244.69922133395448,244.69922133395448,244.69922133395448,245.3912588339299,1,,,,,,,,,,,,,,,gabriel,001,2025-08-18_15h47.50.623,tilt_staircase,2024.2.4,None,2025-08-18 15h48.06.927580 -0400,
,,,0,0,0,,,,,,,,,,,,,,,,,,0,0,0,0,245.39937137486413,,,,,,,,,,,,,,,,,,,,,,,,,,,,,,,,,,,,,,,,,,,,,,,,,,,,,,,,,,,,,,,,,,negc_negs,30,-15,15,-15,"[5, 2, 1, 0.5]",lin,1,1,8,0,16,91,up,0.5,-6.5,-6.5,-30,245.39232029183768,245.39937137486413,245.89031791687012,245.89031791687012,245.96691695903428,245.96691695903428,245.96691695903428,247.16060562501661,0,,,,,,,,,,,,,,,gabriel,001,2025-08-18_15h47.50.623,tilt_staircase,2024.2.4,None,2025-08-18 15h48.06.927580 -0400,
,,,0,0,0,,,,,,,,,,,,,,,,,,0,0,0,0,247.1661549168639,,,,,,,,,,,,,,,,,,,,,,,,,,,,,,,,,,,,,,,,,,,,,,,,,,,,,,,,,,,,,,,,,,negc_noss,30,-15,15,-15,"[5, 2, 1, 0.5]",lin,1,1,8,4,16,92,down,0.5,0.0,0.0,,247.161791624967,247.1661549168639,247.6657732918393,247.6657732918393,247.73936512484215,247.73936512484215,247.73936512484215,249.05747508397326,0,,,,,,,,,,,,,,,gabriel,001,2025-08-18_15h47.50.623,tilt_staircase,2024.2.4,None,2025-08-18 15h48.06.927580 -0400,
,,,0,0,0,,,,,,,,,,,,,,,,,,0,0,0,0,249.0664090840146,,,,,,,,,,,,,,,,,,,,,,,,,,,,,,,,,,,,,,,,,,,,,,,,,,,,,,,,,,,,,,,,,,posc_noss,30,15,15,-15,"[5, 2, 1, 0.5]",lin,1,1,8,5,16,93,down,0.5,0.0,0.0,,249.05881879199296,249.0664090840146,249.55824591685086,249.55824591685086,249.63303058384918,249.63303058384918,249.63303058384918,250.39975058403797,0,,,,,,,,,,,,,,,gabriel,001,2025-08-18_15h47.50.623,tilt_staircase,2024.2.4,None,2025-08-18 15h48.06.927580 -0400,
,,,0,0,0,,,,,,,,,,,,,,,,,,0,0,0,0,250.40667316690087,,,,,,,,,,,,,,,,,,,,,,,,,,,,,,,,,,,,,,,,,,,,,,,,,,,,,,,,,,,,,,,,,,posc_negs,30,15,15,-15,"[5, 2, 1, 0.5]",lin,1,1,8,1,16,94,up,0.5,-5.5,-5.5,-30,250.4005514588207,250.40667316690087,250.88665749994107,250.88665749994107,250.96923941699788,250.96574687492102,250.96574687492102,251.70662520895712,1,,,,,,,,,,,,,,,gabriel,001,2025-08-18_15h47.50.623,tilt_staircase,2024.2.4,None,2025-08-18 15h48.06.927580 -0400,
,,,0,0,0,,,,,,,,,,,,,,,,,,0,0,0,0,251.7152157088276,,,,,,,,,,,,,,,,,,,,,,,,,,,,,,,,,,,,,,,,,,,,,,,,,,,,,,,,,,,,,,,,,,posc_poss,30,15,15,-15,"[5, 2, 1, 0.5]",lin,1,1,8,3,16,95,up,0.5,5.0,5.0,30,251.70767566701397,251.7152157088276,252.2083181249909,252.2083181249909,252.28306891699322,252.28306891699322,252.28306891699322,252.9911202918738,1,,,,,,,,,,,,,,,gabriel,001,2025-08-18_15h47.50.623,tilt_staircase,2024.2.4,None,2025-08-18 15h48.06.927580 -0400,
,,,0,0,0,,,,,,,,,,,,,,,,,,0,0,0,0,252.99919937504455,,,,,,,,,,,,,,,,,,,,,,,,,,,,,,,,,,,,,,,,,,,,,,,,,,,,,,,,,,,,,,,,,,posc_noss,30,15,15,-15,"[5, 2, 1, 0.5]",lin,1,1,8,5,17,96,up,0.5,0.5,0.5,,252.99222520901822,252.99919937504455,253.49133399990387,253.49133399990387,253.5665379590355,253.5665379590355,253.5665379590355,254.42747208382934,0,,,,,,,,,,,,,,,gabriel,001,2025-08-18_15h47.50.623,tilt_staircase,2024.2.4,None,2025-08-18 15h48.06.927580 -0400,
,,,0,0,0,,,,,,,,,,,,,,,,,,0,0,0,0,254.43281091703102,,,,,,,,,,,,,,,,,,,,,,,,,,,,,,,,,,,,,,,,,,,,,,,,,,,,,,,,,,,,,,,,,,posc_poss,30,15,15,-15,"[5, 2, 1, 0.5]",lin,1,1,8,3,17,97,down,0.5,4.5,4.5,30,254.4284927500412,254.43281091703102,254.92450862494297,254.92450862494297,255.00580625003204,255.00001341686584,255.00001341686584,255.81097004190087,1,,,,,,,,,,,,,,,gabriel,001,2025-08-18_15h47.50.623,tilt_staircase,2024.2.4,None,2025-08-18 15h48.06.927580 -0400,
,,,0,0,0,,,,,,,,,,,,,,,,,,0,0,0,0,255.8162961669732,,,,,,,,,,,,,,,,,,,,,,,,,,,,,,,,,,,,,,,,,,,,,,,,,,,,,,,,,,,,,,,,,,negc_noss,30,-15,15,-15,"[5, 2, 1, 0.5]",lin,1,1,8,4,17,98,up,0.5,0.5,0.5,,255.81199854193255,255.8162961669732,256.3091156249866,256.3091156249866,256.38889112486504,256.38295070896856,256.38295070896856,257.1573886668775,0,,,,,,,,,,,,,,,gabriel,001,2025-08-18_15h47.50.623,tilt_staircase,2024.2.4,None,2025-08-18 15h48.06.927580 -0400,
,,,0,0,0,,,,,,,,,,,,,,,,,,0,0,0,0,257.16578283393756,,,,,,,,,,,,,,,,,,,,,,,,,,,,,,,,,,,,,,,,,,,,,,,,,,,,,,,,,,,,,,,,,,negc_poss,30,-15,15,-15,"[5, 2, 1, 0.5]",lin,1,1,8,2,17,99,down,0.5,5.5,5.5,30,257.15854904195294,257.16578283393756,257.65945741697215,257.65945741697215,257.73282687482424,257.73282687482424,257.73282687482424,258.4580380418338,1,,,,,,,,,,,,,,,gabriel,001,2025-08-18_15h47.50.623,tilt_staircase,2024.2.4,None,2025-08-18 15h48.06.927580 -0400,
,,,0,0,0,,,,,,,,,,,,,,,,,,0,0,0,0,258.48294558399357,,,,,,,,,,,,,,,,,,,,,,,,,,,,,,,,,,,,,,,,,,,,,,,,,,,,,,,,,,,,,,,,,,negc_negs,30,-15,15,-15,"[5, 2, 1, 0.5]",lin,1,1,8,0,17,100,up,0.5,-6.0,-6.0,-30,258.45942145888694,258.48294558399357,258.95843066694215,258.95843066694215,259.03291212487966,259.03291212487966,259.03291212487966,259.60817458387464,1,,,,,,,,,,,,,,,gabriel,001,2025-08-18_15h47.50.623,tilt_staircase,2024.2.4,None,2025-08-18 15h48.06.927580 -0400,
,,,0,0,0,,,,,,,,,,,,,,,,,,0,0,0,0,259.6152331249323,,,,,,,,,,,,,,,,,,,,,,,,,,,,,,,,,,,,,,,,,,,,,,,,,,,,,,,,,,,,,,,,,,posc_negs,30,15,15,-15,"[5, 2, 1, 0.5]",lin,1,1,8,1,17,101,down,0.5,-6.0,-6.0,-30,259.6087962919846,259.6152331249323,260.1081800418906,260.1081800418906,260.18280787486583,260.18280787486583,260.18280787486583,261.06871833396144,0,,,,,,,,,,,,,,,gabriel,001,2025-08-18_15h47.50.623,tilt_staircase,2024.2.4,None,2025-08-18 15h48.06.927580 -0400,
,,,0,0,0,,,,,,,,,,,,,,,,,,0,0,0,0,261.0778574999422,,,,,,,,,,,,,,,,,,,,,,,,,,,,,,,,,,,,,,,,,,,,,,,,,,,,,,,,,,,,,,,,,,negc_negs,30,-15,15,-15,"[5, 2, 1, 0.5]",lin,1,1,8,0,18,102,down,0.5,-6.5,-6.5,-30,261.07079241704196,261.0778574999422,261.5661278748885,261.5661278748885,261.63883237494156,261.63883237494156,261.63883237494156,262.68868687492795,0,,,,,,,,,,,,,,,gabriel,001,2025-08-18_15h47.50.623,tilt_staircase,2024.2.4,None,2025-08-18 15h48.06.927580 -0400,
,,,0,0,0,,,,,,,,,,,,,,,,,,0,0,0,0,262.6984039999079,,,,,,,,,,,,,,,,,,,,,,,,,,,,,,,,,,,,,,,,,,,,,,,,,,,,,,,,,,,,,,,,,,posc_negs,30,15,15,-15,"[5, 2, 1, 0.5]",lin,1,1,8,1,18,103,up,0.5,-5.5,-5.5,-30,262.68973791692406,262.6984039999079,263.1827465419192,263.1827465419192,263.26656445884146,263.25577849987894,263.25577849987894,264.1349717499688,0,,,,,,,,,,,,,,,gabriel,001,2025-08-18_15h47.50.623,tilt_staircase,2024.2.4,None,2025-08-18 15h48.06.927580 -0400,
,,,0,0,0,,,,,,,,,,,,,,,,,,0,0,0,0,264.1427558748983,,,,,,,,,,,,,,,,,,,,,,,,,,,,,,,,,,,,,,,,,,,,,,,,,,,,,,,,,,,,,,,,,,posc_noss,30,15,15,-15,"[5, 2, 1, 0.5]",lin,1,1,8,5,18,104,up,0.5,1.0,1.0,,264.13610824989155,264.1427558748983,264.63178529194556,264.63178529194556,264.70610291697085,264.70610291697085,264.70610291697085,265.26847258396447,1,,,,,,,,,,,,,,,gabriel,001,2025-08-18_15h47.50.623,tilt_staircase,2024.2.4,None,2025-08-18 15h48.06.927580 -0400,
,,,0,0,0,,,,,,,,,,,,,,,,,,0,0,0,0,265.27758624986745,,,,,,,,,,,,,,,,,,,,,,,,,,,,,,,,,,,,,,,,,,,,,,,,,,,,,,,,,,,,,,,,,,posc_poss,30,15,15,-15,"[5, 2, 1, 0.5]",lin,1,1,8,3,18,105,down,0.5,4.0,4.0,30,265.26971366698854,265.27758624986745,265.7652415840421,265.7652415840421,265.839601958869,265.839601958869,265.839601958869,266.5908162088599,0,,,,,,,,,,,,,,,gabriel,001,2025-08-18_15h47.50.623,tilt_staircase,2024.2.4,None,2025-08-18 15h48.06.927580 -0400,
,,,0,0,0,,,,,,,,,,,,,,,,,,0,0,0,0,266.5987476250157,,,,,,,,,,,,,,,,,,,,,,,,,,,,,,,,,,,,,,,,,,,,,,,,,,,,,,,,,,,,,,,,,,negc_poss,30,-15,15,-15,"[5, 2, 1, 0.5]",lin,1,1,8,2,18,106,down,0.5,5.0,5.0,30,266.59188824985176,266.5987476250157,267.09208741690964,267.09208741690964,267.1664243340492,267.1664243340492,267.1664243340492,269.0520751250442,1,,,,,,,,,,,,,,,gabriel,001,2025-08-18_15h47.50.623,tilt_staircase,2024.2.4,None,2025-08-18 15h48.06.927580 -0400,
,,,0,0,0,,,,,,,,,,,,,,,,,,0,0,0,0,269.06095254188403,,,,,,,,,,,,,,,,,,,,,,,,,,,,,,,,,,,,,,,,,,,,,,,,,,,,,,,,,,,,,,,,,,negc_noss,30,-15,15,-15,"[5, 2, 1, 0.5]",lin,1,1,8,4,18,107,up,0.5,1.0,1.0,,269.053836917039,269.06095254188403,269.54853583383374,269.54853583383374,269.6228538339492,269.6228538339492,269.6228538339492,270.256923958892,1,,,,,,,,,,,,,,,gabriel,001,2025-08-18_15h47.50.623,tilt_staircase,2024.2.4,None,2025-08-18 15h48.06.927580 -0400,
,,,0,0,0,,,,,,,,,,,,,,,,,,0,0,0,0,270.26492058392614,,,,,,,,,,,,,,,,,,,,,,,,,,,,,,,,,,,,,,,,,,,,,,,,,,,,,,,,,,,,,,,,,,posc_poss,30,15,15,-15,"[5, 2, 1, 0.5]",lin,1,1,8,3,19,108,up,0.5,4.5,4.5,30,270.257967249956,270.26492058392614,270.7580113748554,270.7580113748554,270.83331629191525,270.83331629191525,270.83331629191525,271.5215593748726,0,,,,,,,,,,,,,,,gabriel,001,2025-08-18_15h47.50.623,tilt_staircase,2024.2.4,None,2025-08-18 15h48.06.927580 -0400,
,,,0,0,0,,,,,,,,,,,,,,,,,,0,0,0,0,271.53241241700016,,,,,,,,,,,,,,,,,,,,,,,,,,,,,,,,,,,,,,,,,,,,,,,,,,,,,,,,,,,,,,,,,,posc_negs,30,15,15,-15,"[5, 2, 1, 0.5]",lin,1,1,8,1,19,109,up,0.5,-5.0,-5.0,-30,271.525376916863,271.53241241700016,272.0154779588338,272.0154779588338,272.0994529169984,272.08798654191196,272.08798654191196,272.9405232090503,1,,,,,,,,,,,,,,,gabriel,001,2025-08-18_15h47.50.623,tilt_staircase,2024.2.4,None,2025-08-18 15h48.06.927580 -0400,
,,,0,0,0,,,,,,,,,,,,,,,,,,0,0,0,0,272.9483382918406,,,,,,,,,,,,,,,,,,,,,,,,,,,,,,,,,,,,,,,,,,,,,,,,,,,,,,,,,,,,,,,,,,negc_poss,30,-15,15,-15,"[5, 2, 1, 0.5]",lin,1,1,8,2,19,110,down,0.5,4.5,4.5,30,272.9415239589289,272.9483382918406,273.4393125839997,273.4393125839997,273.5165824999567,273.5165824999567,273.5165824999567,274.4737566669937,1,,,,,,,,,,,,,,,gabriel,001,2025-08-18_15h47.50.623,tilt_staircase,2024.2.4,None,2025-08-18 15h48.06.927580 -0400,
,,,0,0,0,,,,,,,,,,,,,,,,,,0,0,0,0,274.4823156669736,,,,,,,,,,,,,,,,,,,,,,,,,,,,,,,,,,,,,,,,,,,,,,,,,,,,,,,,,,,,,,,,,,negc_negs,30,-15,15,-15,"[5, 2, 1, 0.5]",lin,1,1,8,0,19,111,up,0.5,-6.0,-6.0,-30,274.4749162090011,274.4823156669736,274.97525187488645,274.97525187488645,275.0498968749307,275.0498968749307,275.0498968749307,275.7065106248483,1,,,,,,,,,,,,,,,gabriel,001,2025-08-18_15h47.50.623,tilt_staircase,2024.2.4,None,2025-08-18 15h48.06.927580 -0400,
,,,0,0,0,,,,,,,,,,,,,,,,,,0,0,0,0,275.71493187500164,,,,,,,,,,,,,,,,,,,,,,,,,,,,,,,,,,,,,,,,,,,,,,,,,,,,,,,,,,,,,,,,,,negc_noss,30,-15,15,-15,"[5, 2, 1, 0.5]",lin,1,1,8,4,19,112,down,0.5,0.5,0.5,,275.70759079186246,275.71493187500164,276.2079088338651,276.2079088338651,276.28290620888583,276.28290620888583,276.28290620888583,277.0178101249039,1,,,,,,,,,,,,,,,gabriel,001,2025-08-18_15h47.50.623,tilt_staircase,2024.2.4,None,2025-08-18 15h48.06.927580 -0400,
,,,0,0,0,,,,,,,,,,,,,,,,,,0,0,0,0,277.0250852499157,,,,,,,,,,,,,,,,,,,,,,,,,,,,,,,,,,,,,,,,,,,,,,,,,,,,,,,,,,,,,,,,,,posc_noss,30,15,15,-15,"[5, 2, 1, 0.5]",lin,1,1,8,5,19,113,down,0.5,0.5,0.5,,277.01914841705,277.0250852499157,277.51523049990647,277.51523049990647,277.5888009588234,277.5888009588234,277.5888009588234,278.21857183403336,0,,,,,,,,,,,,,,,gabriel,001,2025-08-18_15h47.50.623,tilt_staircase,2024.2.4,None,2025-08-18 15h48.06.927580 -0400,
,,,0,0,0,,,,,,,,,,,,,,,,,,0,0,0,0,278.22654108400457,,,,,,,,,,,,,,,,,,,,,,,,,,,,,,,,,,,,,,,,,,,,,,,,,,,,,,,,,,,,,,,,,,posc_noss,30,15,15,-15,"[5, 2, 1, 0.5]",lin,1,1,8,5,20,114,up,0.5,1.0,1.0,,278.21973424986936,278.22654108400457,278.71517320885323,278.71517320885323,278.7892605839297,278.7892605839297,278.7892605839297,280.26773666683584,0,,,,,,,,,,,,,,,gabriel,001,2025-08-18_15h47.50.623,tilt_staircase,2024.2.4,None,2025-08-18 15h48.06.927580 -0400,
,,,0,0,0,,,,,,,,,,,,,,,,,,0,0,0,0,280.27591545903124,,,,,,,,,,,,,,,,,,,,,,,,,,,,,,,,,,,,,,,,,,,,,,,,,,,,,,,,,,,,,,,,,,posc_negs,30,15,15,-15,"[5, 2, 1, 0.5]",lin,1,1,8,1,20,115,down,0.5,-5.5,-5.5,-30,280.268774749944,280.27591545903124,280.7662467090413,280.7662467090413,280.8393864999525,280.8393864999525,280.8393864999525,281.63520012493245,0,,,,,,,,,,,,,,,gabriel,001,2025-08-18_15h47.50.623,tilt_staircase,2024.2.4,None,2025-08-18 15h48.06.927580 -0400,
,,,0,0,0,,,,,,,,,,,,,,,,,,0,0,0,0,281.6431769998744,,,,,,,,,,,,,,,,,,,,,,,,,,,,,,,,,,,,,,,,,,,,,,,,,,,,,,,,,,,,,,,,,,negc_negs,30,-15,15,-15,"[5, 2, 1, 0.5]",lin,1,1,8,0,20,116,down,0.5,-6.5,-6.5,-30,281.63635079190135,281.6431769998744,282.131845084019,282.131845084019,282.20596924982965,282.20596924982965,282.20596924982965,282.85739945899695,0,,,,,,,,,,,,,,,gabriel,001,2025-08-18_15h47.50.623,tilt_staircase,2024.2.4,None,2025-08-18 15h48.06.927580 -0400,
,,,0,0,0,,,,,,,,,,,,,,,,,,0,0,0,0,282.8651621248573,,,,,,,,,,,,,,,,,,,,,,,,,,,,,,,,,,,,,,,,,,,,,,,,,,,,,,,,,,,,,,,,,,negc_noss,30,-15,15,-15,"[5, 2, 1, 0.5]",lin,1,1,8,4,20,117,down,0.5,0.0,0.0,,282.8585044168867,282.8651621248573,283.35803045891225,283.35803045891225,283.4327234169468,283.4327234169468,283.4327234169468,284.45178049989045,0,,,,,,,,,,,,,,,gabriel,001,2025-08-18_15h47.50.623,tilt_staircase,2024.2.4,None,2025-08-18 15h48.06.927580 -0400,
,,,0,0,0,,,,,,,,,,,,,,,,,,0,0,0,0,284.4598850000184,,,,,,,,,,,,,,,,,,,,,,,,,,,,,,,,,,,,,,,,,,,,,,,,,,,,,,,,,,,,,,,,,,negc_poss,30,-15,15,-15,"[5, 2, 1, 0.5]",lin,1,1,8,2,20,118,down,0.5,4.0,4.0,30,284.4531360419933,284.4598850000184,284.9483949588612,284.9483949588612,285.0205535418354,285.0205535418354,285.0205535418354,285.71241291682236,0,,,,,,,,,,,,,,,gabriel,001,2025-08-18_15h47.50.623,tilt_staircase,2024.2.4,None,2025-08-18 15h48.06.927580 -0400,
,,,0,0,0,,,,,,,,,,,,,,,,,,0,0,0,0,285.7280302499421,,,,,,,,,,,,,,,,,,,,,,,,,,,,,,,,,,,,,,,,,,,,,,,,,,,,,,,,,,,,,,,,,,posc_poss,30,15,15,-15,"[5, 2, 1, 0.5]",lin,1,1,8,3,20,119,up,0.5,5.0,5.0,30,285.7148569589481,285.7280302499421,286.209234375041,286.209234375041,286.2896359588485,286.2834012499079,286.2834012499079,287.535018999828,1,,,,,,,,,,,,,,,gabriel,001,2025-08-18_15h47.50.623,tilt_staircase,2024.2.4,None,2025-08-18 15h48.06.927580 -0400,
,,,0,0,0,,,,,,,,,,,,,,,,,,0,0,0,0,287.54339374997653,,,,,,,,,,,,,,,,,,,,,,,,,,,,,,,,,,,,,,,,,,,,,,,,,,,,,,,,,,,,,,,,,,negc_poss,30,-15,15,-15,"[5, 2, 1, 0.5]",lin,1,1,8,2,21,120,up,0.5,4.5,4.5,30,287.5363949169405,287.54339374997653,288.0317638339475,288.0317638339475,288.10553220892325,288.10553220892325,288.10553220892325,289.0406661669258,1,,,,,,,,,,,,,,,gabriel,001,2025-08-18_15h47.50.623,tilt_staircase,2024.2.4,None,2025-08-18 15h48.06.927580 -0400,
,,,0,0,0,,,,,,,,,,,,,,,,,,0,0,0,0,289.0487504589837,,,,,,,,,,,,,,,,,,,,,,,,,,,,,,,,,,,,,,,,,,,,,,,,,,,,,,,,,,,,,,,,,,posc_negs,30,15,15,-15,"[5, 2, 1, 0.5]",lin,1,1,8,1,21,121,up,0.5,-5.0,-5.0,-30,289.0419087498449,289.0487504589837,289.54186004190706,289.54186004190706,289.6163587500341,289.6163587500341,289.6163587500341,290.32416220894083,1,,,,,,,,,,,,,,,gabriel,001,2025-08-18_15h47.50.623,tilt_staircase,2024.2.4,None,2025-08-18 15h48.06.927580 -0400,
,,,0,0,0,,,,,,,,,,,,,,,,,,0,0,0,0,290.3327526669018,,,,,,,,,,,,,,,,,,,,,,,,,,,,,,,,,,,,,,,,,,,,,,,,,,,,,,,,,,,,,,,,,,posc_poss,30,15,15,-15,"[5, 2, 1, 0.5]",lin,1,1,8,3,21,122,down,0.5,4.5,4.5,30,290.32529654190876,290.3327526669018,290.8251969588455,290.8251969588455,290.89947449998,290.89947449998,290.89947449998,291.44111324986443,1,,,,,,,,,,,,,,,gabriel,001,2025-08-18_15h47.50.623,tilt_staircase,2024.2.4,None,2025-08-18 15h48.06.927580 -0400,
,,,0,0,0,,,,,,,,,,,,,,,,,,0,0,0,0,291.4490490418393,,,,,,,,,,,,,,,,,,,,,,,,,,,,,,,,,,,,,,,,,,,,,,,,,,,,,,,,,,,,,,,,,,negc_noss,30,-15,15,-15,"[5, 2, 1, 0.5]",lin,1,1,8,4,21,123,up,0.5,0.5,0.5,,291.4422086668201,291.4490490418393,291.94020224991255,291.94020224991255,292.01665291702375,292.01665291702375,292.01665291702375,293.0515077498276,0,,,,,,,,,,,,,,,gabriel,001,2025-08-18_15h47.50.623,tilt_staircase,2024.2.4,None,2025-08-18 15h48.06.927580 -0400,
,,,0,0,0,,,,,,,,,,,,,,,,,,0,0,0,0,293.06102020898834,,,,,,,,,,,,,,,,,,,,,,,,,,,,,,,,,,,,,,,,,,,,,,,,,,,,,,,,,,,,,,,,,,posc_noss,30,15,15,-15,"[5, 2, 1, 0.5]",lin,1,1,8,5,21,124,up,0.5,1.5,1.5,,293.0537179589737,293.06102020898834,293.5484034169931,293.5484034169931,293.62453312496655,293.62453312496655,293.62453312496655,294.2689868749585,1,,,,,,,,,,,,,,,gabriel,001,2025-08-18_15h47.50.623,tilt_staircase,2024.2.4,None,2025-08-18 15h48.06.927580 -0400,
,,,0,0,0,,,,,,,,,,,,,,,,,,0,0,0,0,294.2773164999671,,,,,,,,,,,,,,,,,,,,,,,,,,,,,,,,,,,,,,,,,,,,,,,,,,,,,,,,,,,,,,,,,,negc_negs,30,-15,15,-15,"[5, 2, 1, 0.5]",lin,1,1,8,0,21,125,up,0.5,-6.0,-6.0,-30,294.27027820888907,294.2773164999671,294.7651441670023,294.7651441670023,294.83982258383185,294.83982258383185,294.83982258383185,296.2718338749837,1,,,,,,,,,,,,,,,gabriel,001,2025-08-18_15h47.50.623,tilt_staircase,2024.2.4,None,2025-08-18 15h48.06.927580 -0400,
,,,0,0,0,,,,,,,,,,,,,,,,,,0,0,0,0,296.28169408394024,,,,,,,,,,,,,,,,,,,,,,,,,,,,,,,,,,,,,,,,,,,,,,,,,,,,,,,,,,,,,,,,,,negc_poss,30,-15,15,-15,"[5, 2, 1, 0.5]",lin,1,1,8,2,22,126,down,0.5,4.0,4.0,30,296.272873791866,296.28169408394024,296.7650372919161,296.7650372919161,296.84973350004293,296.8386349170469,296.8386349170469,298.1573939588852,0,,,,,,,,,,,,,,,gabriel,001,2025-08-18_15h47.50.623,tilt_staircase,2024.2.4,None,2025-08-18 15h48.06.927580 -0400,
,,,0,0,0,,,,,,,,,,,,,,,,,,0,0,0,0,298.1652632090263,,,,,,,,,,,,,,,,,,,,,,,,,,,,,,,,,,,,,,,,,,,,,,,,,,,,,,,,,,,,,,,,,,negc_noss,30,-15,15,-15,"[5, 2, 1, 0.5]",lin,1,1,8,4,22,127,up,0.5,1.0,1.0,,298.1584178749472,298.1652632090263,298.658705416834,298.658705416834,298.73310041683726,298.73310041683726,298.73310041683726,299.66905954200774,1,,,,,,,,,,,,,,,gabriel,001,2025-08-18_15h47.50.623,tilt_staircase,2024.2.4,None,2025-08-18 15h48.06.927580 -0400,
,,,0,0,0,,,,,,,,,,,,,,,,,,0,0,0,0,299.67685445887037,,,,,,,,,,,,,,,,,,,,,,,,,,,,,,,,,,,,,,,,,,,,,,,,,,,,,,,,,,,,,,,,,,negc_negs,30,-15,15,-15,"[5, 2, 1, 0.5]",lin,1,1,8,0,22,128,down,0.5,-6.5,-6.5,-30,299.67014375003055,299.67685445887037,300.1654804998543,300.1654804998543,300.2363259168342,300.2363259168342,300.2363259168342,300.93529858393595,1,,,,,,,,,,,,,,,gabriel,001,2025-08-18_15h47.50.623,tilt_staircase,2024.2.4,None,2025-08-18 15h48.06.927580 -0400,
,,,0,0,0,,,,,,,,,,,,,,,,,,0,0,0,0,300.94343162490986,,,,,,,,,,,,,,,,,,,,,,,,,,,,,,,,,,,,,,,,,,,,,,,,,,,,,,,,,,,,,,,,,,posc_noss,30,15,15,-15,"[5, 2, 1, 0.5]",lin,1,1,8,5,22,129,down,0.5,1.0,1.0,,300.93634358397685,300.94343162490986,301.4317074168939,301.4317074168939,301.50401112483814,301.50401112483814,301.50401112483814,302.1815883340314,1,,,,,,,,,,,,,,,gabriel,001,2025-08-18_15h47.50.623,tilt_staircase,2024.2.4,None,2025-08-18 15h48.06.927580 -0400,
,,,0,0,0,,,,,,,,,,,,,,,,,,0,0,0,0,302.19046770897694,,,,,,,,,,,,,,,,,,,,,,,,,,,,,,,,,,,,,,,,,,,,,,,,,,,,,,,,,,,,,,,,,,posc_poss,30,15,15,-15,"[5, 2, 1, 0.5]",lin,1,1,8,3,22,130,down,0.5,4.0,4.0,30,302.18217187491246,302.19046770897694,302.6730330840219,302.6730330840219,302.7537831249647,302.7485580840148,302.7485580840148,303.8510800418444,0,,,,,,,,,,,,,,,gabriel,001,2025-08-18_15h47.50.623,tilt_staircase,2024.2.4,None,2025-08-18 15h48.06.927580 -0400,
,,,0,0,0,,,,,,,,,,,,,,,,,,0,0,0,0,303.85930012492463,,,,,,,,,,,,,,,,,,,,,,,,,,,,,,,,,,,,,,,,,,,,,,,,,,,,,,,,,,,,,,,,,,posc_negs,30,15,15,-15,"[5, 2, 1, 0.5]",lin,1,1,8,1,22,131,down,0.5,-5.5,-5.5,-30,303.85215491685085,303.85930012492463,304.34964191704057,304.34964191704057,304.4224336668849,304.4224336668849,304.4224336668849,305.00709191686474,1,,,,,,,,,,,,,,,gabriel,001,2025-08-18_15h47.50.623,tilt_staircase,2024.2.4,None,2025-08-18 15h48.06.927580 -0400,
,,,0,0,0,,,,,,,,,,,,,,,,,,0,0,0,0,305.0149696250446,,,,,,,,,,,,,,,,,,,,,,,,,,,,,,,,,,,,,,,,,,,,,,,,,,,,,,,,,,,,,,,,,,negc_noss,30,-15,15,-15,"[5, 2, 1, 0.5]",lin,1,1,8,4,23,132,down,0.5,0.5,0.5,,305.00831366702914,305.0149696250446,305.5084548748564,305.5084548748564,305.5827804999426,305.5827804999426,305.5827804999426,306.25218516704626,1,,,,,,,,,,,,,,,gabriel,001,2025-08-18_15h47.50.623,tilt_staircase,2024.2.4,None,2025-08-18 15h48.06.927580 -0400,
,,,0,0,0,,,,,,,,,,,,,,,,,,0,0,0,0,306.26077683386393,,,,,,,,,,,,,,,,,,,,,,,,,,,,,,,,,,,,,,,,,,,,,,,,,,,,,,,,,,,,,,,,,,negc_negs,30,-15,15,-15,"[5, 2, 1, 0.5]",lin,1,1,8,0,23,133,down,0.5,-7.0,-7.0,-30,306.253908084007,306.26077683386393,306.7494423338212,306.7494423338212,306.8224237919785,306.8224237919785,306.8224237919785,308.3399557089433,1,,,,,,,,,,,,,,,gabriel,001,2025-08-18_15h47.50.623,tilt_staircase,2024.2.4,None,2025-08-18 15h48.06.927580 -0400,
,,,0,0,0,,,,,,,,,,,,,,,,,,0,0,0,0,308.3483726668637,,,,,,,,,,,,,,,,,,,,,,,,,,,,,,,,,,,,,,,,,,,,,,,,,,,,,,,,,,,,,,,,,,posc_noss,30,15,15,-15,"[5, 2, 1, 0.5]",lin,1,1,8,5,23,134,down,0.5,0.5,0.5,,308.34101579198614,308.3483726668637,308.8419829169288,308.8419829169288,308.91606924985535,308.91606924985535,308.91606924985535,309.64280366688035,1,,,,,,,,,,,,,,,gabriel,001,2025-08-18_15h47.50.623,tilt_staircase,2024.2.4,None,2025-08-18 15h48.06.927580 -0400,
,,,0,0,0,,,,,,,,,,,,,,,,,,0,0,0,0,309.648223917,,,,,,,,,,,,,,,,,,,,,,,,,,,,,,,,,,,,,,,,,,,,,,,,,,,,,,,,,,,,,,,,,,posc_negs,30,15,15,-15,"[5, 2, 1, 0.5]",lin,1,1,8,1,23,135,down,0.5,-6.0,-6.0,-30,309.6438164168503,309.648223917,310.1410265418235,310.1410265418235,310.21569424984045,310.21569424984045,310.21569424984045,311.7180298748426,0,,,,,,,,,,,,,,,gabriel,001,2025-08-18_15h47.50.623,tilt_staircase,2024.2.4,None,2025-08-18 15h48.06.927580 -0400,
,,,0,0,0,,,,,,,,,,,,,,,,,,0,0,0,0,311.72651062486693,,,,,,,,,,,,,,,,,,,,,,,,,,,,,,,,,,,,,,,,,,,,,,,,,,,,,,,,,,,,,,,,,,posc_poss,30,15,15,-15,"[5, 2, 1, 0.5]",lin,1,1,8,3,23,136,up,0.5,4.5,4.5,30,311.7195942499675,311.72651062486693,312.2150052499492,312.2150052499492,312.2895534168929,312.2895534168929,312.2895534168929,312.91826762491837,0,,,,,,,,,,,,,,,gabriel,001,2025-08-18_15h47.50.623,tilt_staircase,2024.2.4,None,2025-08-18 15h48.06.927580 -0400,
,,,0,0,0,,,,,,,,,,,,,,,,,,0,0,0,0,312.9263631668873,,,,,,,,,,,,,,,,,,,,,,,,,,,,,,,,,,,,,,,,,,,,,,,,,,,,,,,,,,,,,,,,,,negc_poss,30,-15,15,-15,"[5, 2, 1, 0.5]",lin,1,1,8,2,23,137,up,0.5,4.5,4.5,30,312.9195926669054,312.9263631668873,313.4161050419789,313.4161050419789,313.4893998338375,313.4893998338375,313.4893998338375,314.6684563339222,1,,,,,,,,,,,,,,,gabriel,001,2025-08-18_15h47.50.623,tilt_staircase,2024.2.4,None,2025-08-18 15h48.06.927580 -0400,
,,,0,0,0,,,,,,,,,,,,,,,,,,0,0,0,0,314.67669237498194,,,,,,,,,,,,,,,,,,,,,,,,,,,,,,,,,,,,,,,,,,,,,,,,,,,,,,,,,,,,,,,,,,posc_negs,30,15,15,-15,"[5, 2, 1, 0.5]",lin,1,1,8,1,24,138,up,0.5,-5.5,-5.5,-30,314.67007991694845,314.67669237498194,315.16607062495314,315.16607062495314,315.2387484589126,315.2387484589126,315.2387484589126,315.8409810420126,1,,,,,,,,,,,,,,,gabriel,001,2025-08-18_15h47.50.623,tilt_staircase,2024.2.4,None,2025-08-18 15h48.06.927580 -0400,
,,,0,0,0,,,,,,,,,,,,,,,,,,0,0,0,0,315.8489156248979,,,,,,,,,,,,,,,,,,,,,,,,,,,,,,,,,,,,,,,,,,,,,,,,,,,,,,,,,,,,,,,,,,posc_noss,30,15,15,-15,"[5, 2, 1, 0.5]",lin,1,1,8,5,24,139,down,0.5,0.0,0.0,,315.84204383403994,315.8489156248979,316.34047199995257,316.34047199995257,316.41528416704386,316.41528416704386,316.41528416704386,317.5676207919605,1,,,,,,,,,,,,,,,gabriel,001,2025-08-18_15h47.50.623,tilt_staircase,2024.2.4,None,2025-08-18 15h48.06.927580 -0400,
,,,0,0,0,,,,,,,,,,,,,,,,,,0,0,0,0,317.5755997088272,,,,,,,,,,,,,,,,,,,,,,,,,,,,,,,,,,,,,,,,,,,,,,,,,,,,,,,,,,,,,,,,,,posc_poss,30,15,15,-15,"[5, 2, 1, 0.5]",lin,1,1,8,3,24,140,up,0.5,5.0,5.0,30,317.5686344590504,317.5755997088272,318.0651951248292,318.0651951248292,318.1389305838384,318.1389305838384,318.1389305838384,318.990234375,0,,,,,,,,,,,,,,,gabriel,001,2025-08-18_15h47.50.623,tilt_staircase,2024.2.4,None,2025-08-18 15h48.06.927580 -0400,
,,,0,0,0,,,,,,,,,,,,,,,,,,0,0,0,0,318.99844354204834,,,,,,,,,,,,,,,,,,,,,,,,,,,,,,,,,,,,,,,,,,,,,,,,,,,,,,,,,,,,,,,,,,negc_noss,30,-15,15,-15,"[5, 2, 1, 0.5]",lin,1,1,8,4,24,141,down,0.5,0.0,0.0,,318.9912575839553,318.99844354204834,319.4912808749359,319.4912808749359,319.5660802919883,319.5660802919883,319.5660802919883,320.4778583748266,0,,,,,,,,,,,,,,,gabriel,001,2025-08-18_15h47.50.623,tilt_staircase,2024.2.4,None,2025-08-18 15h48.06.927580 -0400,
,,,0,0,0,,,,,,,,,,,,,,,,,,0,0,0,0,320.4993364168331,,,,,,,,,,,,,,,,,,,,,,,,,,,,,,,,,,,,,,,,,,,,,,,,,,,,,,,,,,,,,,,,,,negc_poss,30,-15,15,-15,"[5, 2, 1, 0.5]",lin,1,1,8,2,24,142,down,0.5,4.0,4.0,30,320.4788633340504,320.4993364168331,320.97584529197775,320.97584529197775,321.0554572499823,321.04951199982315,321.04951199982315,321.68435808387585,0,,,,,,,,,,,,,,,gabriel,001,2025-08-18_15h47.50.623,tilt_staircase,2024.2.4,None,2025-08-18 15h48.06.927580 -0400,
,,,0,0,0,,,,,,,,,,,,,,,,,,0,0,0,0,321.6922313750256,,,,,,,,,,,,,,,,,,,,,,,,,,,,,,,,,,,,,,,,,,,,,,,,,,,,,,,,,,,,,,,,,,negc_negs,30,-15,15,-15,"[5, 2, 1, 0.5]",lin,1,1,8,0,24,143,down,0.5,-7.5,-7.5,-30,321.68543041683733,321.6922313750256,322.1822406668216,322.1822406668216,322.2556045418605,322.2556045418605,322.2556045418605,323.0345421668608,0,,,,,,,,,,,,,,,gabriel,001,2025-08-18_15h47.50.623,tilt_staircase,2024.2.4,None,2025-08-18 15h48.06.927580 -0400,
,,,0,0,0,,,,,,,,,,,,,,,,,,0,0,0,0,323.0429897918366,,,,,,,,,,,,,,,,,,,,,,,,,,,,,,,,,,,,,,,,,,,,,,,,,,,,,,,,,,,,,,,,,,posc_negs,30,15,15,-15,"[5, 2, 1, 0.5]",lin,1,1,8,1,25,144,down,0.5,-6.0,-6.0,-30,323.03605120885186,323.0429897918366,323.5325408340432,323.5325408340432,323.60557412495837,323.60557412495837,323.60557412495837,324.21030087489635,0,,,,,,,,,,,,,,,gabriel,001,2025-08-18_15h47.50.623,tilt_staircase,2024.2.4,None,2025-08-18 15h48.06.927580 -0400,
,,,0,0,0,,,,,,,,,,,,,,,,,,0,0,0,0,324.21620254195295,,,,,,,,,,,,,,,,,,,,,,,,,,,,,,,,,,,,,,,,,,,,,,,,,,,,,,,,,,,,,,,,,,negc_negs,30,-15,15,-15,"[5, 2, 1, 0.5]",lin,1,1,8,0,25,145,up,0.5,-7.0,-7.0,-30,324.2115072088782,324.21620254195295,324.7082723749336,324.7082723749336,324.7878936249763,324.78268116689287,324.78268116689287,325.41856674989685,0,,,,,,,,,,,,,,,gabriel,001,2025-08-18_15h47.50.623,tilt_staircase,2024.2.4,None,2025-08-18 15h48.06.927580 -0400,
,,,0,0,0,,,,,,,,,,,,,,,,,,0,0,0,0,325.4273136248812,,,,,,,,,,,,,,,,,,,,,,,,,,,,,,,,,,,,,,,,,,,,,,,,,,,,,,,,,,,,,,,,,,posc_noss,30,15,15,-15,"[5, 2, 1, 0.5]",lin,1,1,8,5,25,146,down,0.5,-0.5,-0.5,,325.42015291703865,325.4273136248812,325.91514562489465,325.91514562489465,325.9891347498633,325.9891347498633,325.9891347498633,326.5018589589745,1,,,,,,,,,,,,,,,gabriel,001,2025-08-18_15h47.50.623,tilt_staircase,2024.2.4,None,2025-08-18 15h48.06.927580 -0400,
,,,0,0,0,,,,,,,,,,,,,,,,,,0,0,0,0,326.5100742499344,,,,,,,,,,,,,,,,,,,,,,,,,,,,,,,,,,,,,,,,,,,,,,,,,,,,,,,,,,,,,,,,,,negc_noss,30,-15,15,-15,"[5, 2, 1, 0.5]",lin,1,1,8,4,25,147,up,0.5,0.5,0.5,,326.50335162482224,326.5100742499344,326.99850749992765,326.99850749992765,327.0708308748435,327.0708308748435,327.0708308748435,327.8517627918627,0,,,,,,,,,,,,,,,gabriel,001,2025-08-18_15h47.50.623,tilt_staircase,2024.2.4,None,2025-08-18 15h48.06.927580 -0400,
,,,0,0,0,,,,,,,,,,,,,,,,,,0,0,0,0,327.86032537487336,,,,,,,,,,,,,,,,,,,,,,,,,,,,,,,,,,,,,,,,,,,,,,,,,,,,,,,,,,,,,,,,,,negc_poss,30,-15,15,-15,"[5, 2, 1, 0.5]",lin,1,1,8,2,25,148,up,0.5,4.5,4.5,30,327.8533327919431,327.86032537487336,328.3487790420186,328.3487790420186,328.4219912090339,328.4219912090339,328.4219912090339,329.83494125003926,0,,,,,,,,,,,,,,,gabriel,001,2025-08-18_15h47.50.623,tilt_staircase,2024.2.4,None,2025-08-18 15h48.06.927580 -0400,
,,,0,0,0,,,,,,,,,,,,,,,,,,0,0,0,0,329.8432924998924,,,,,,,,,,,,,,,,,,,,,,,,,,,,,,,,,,,,,,,,,,,,,,,,,,,,,,,,,,,,,,,,,,posc_poss,30,15,15,-15,"[5, 2, 1, 0.5]",lin,1,1,8,3,25,149,up,0.5,5.5,5.5,30,329.83640754199587,329.8432924998924,330.3328135840129,330.3328135840129,330.40531033393927,330.40531033393927,330.40531033393927,331.02614216692746,0,,,,,,,,,,,,,,,gabriel,001,2025-08-18_15h47.50.623,tilt_staircase,2024.2.4,None,2025-08-18 15h48.06.927580 -0400,
,,,1,0,1,,,,,,,,,,,,,,,,,,1,0,1,0,365.6237381249666,,,,,,,,,,,,,,,,,,,,,,,,,,,,,,,,,,,,,,,,,,,,,,,,,,,,,,,,,,,,,,,,,,negc_noss,30,-15,15,-15,"[5, 2, 1, 0.5]",lin,1,1,8,4,1,0,start,5,-15,-15,,365.6137124169618,365.6237381249666,366.0904725419823,366.0904725419823,366.17124654189683,366.16550087486394,366.16550087486394,366.9273352918681,0,331.02629749989137,331.03284224984236,331.03284224984236,365.5925745838322,space,34.554563250159845,None,,,,,,,,gabriel,001,2025-08-18_15h47.50.623,tilt_staircase,2024.2.4,None,2025-08-18 15h48.06.927580 -0400,
,,,1,0,1,,,,,,,,,,,,,,,,,,1,0,1,0,366.9327867089305,,,,,,,,,,,,,,,,,,,,,,,,,,,,,,,,,,,,,,,,,,,,,,,,,,,,,,,,,,,,,,,,,,posc_poss,30,15,15,-15,"[5, 2, 1, 0.5]",lin,1,1,8,3,1,1,start,5,15,15,30,366.92844066699035,366.9327867089305,367.4245388749987,367.4245388749987,367.5054354998283,367.49927362496965,367.49927362496965,368.07244254183024,1,,,,,,,,,,,,,,,gabriel,001,2025-08-18_15h47.50.623,tilt_staircase,2024.2.4,None,2025-08-18 15h48.06.927580 -0400,
,,,1,0,1,,,,,,,,,,,,,,,,,,1,0,1,0,368.08149687503465,,,,,,,,,,,,,,,,,,,,,,,,,,,,,,,,,,,,,,,,,,,,,,,,,,,,,,,,,,,,,,,,,,posc_negs,30,15,15,-15,"[5, 2, 1, 0.5]",lin,1,1,8,1,1,2,start,5,15,15,-30,368.0735207500402,368.08149687503465,368.5777861669194,368.5777861669194,368.64876079186797,368.65494395885617,368.65494395885617,369.23446629196405,1,,,,,,,,,,,,,,,gabriel,001,2025-08-18_15h47.50.623,tilt_staircase,2024.2.4,None,2025-08-18 15h48.06.927580 -0400,
,,,1,0,1,,,,,,,,,,,,,,,,,,1,0,1,0,369.2431877499912,,,,,,,,,,,,,,,,,,,,,,,,,,,,,,,,,,,,,,,,,,,,,,,,,,,,,,,,,,,,,,,,,,negc_negs,30,-15,15,-15,"[5, 2, 1, 0.5]",lin,1,1,8,0,1,3,start,5,-15,-15,-30,369.2359365420416,369.2431877499912,369.731900166953,369.731900166953,369.8029649169184,369.8029649169184,369.8029649169184,370.351273749955,0,,,,,,,,,,,,,,,gabriel,001,2025-08-18_15h47.50.623,tilt_staircase,2024.2.4,None,2025-08-18 15h48.06.927580 -0400,
,,,1,0,1,,,,,,,,,,,,,,,,,,1,0,1,0,370.3595779170282,,,,,,,,,,,,,,,,,,,,,,,,,,,,,,,,,,,,,,,,,,,,,,,,,,,,,,,,,,,,,,,,,,negc_poss,30,-15,15,-15,"[5, 2, 1, 0.5]",lin,1,1,8,2,1,4,start,5,-15,-15,30,370.3525592498481,370.3595779170282,370.84904408385046,370.84904408385046,370.92233487498015,370.92233487498015,370.92233487498015,371.48497608397156,0,,,,,,,,,,,,,,,gabriel,001,2025-08-18_15h47.50.623,tilt_staircase,2024.2.4,None,2025-08-18 15h48.06.927580 -0400,
,,,1,0,1,,,,,,,,,,,,,,,,,,1,0,1,0,371.4936104589142,,,,,,,,,,,,,,,,,,,,,,,,,,,,,,,,,,,,,,,,,,,,,,,,,,,,,,,,,,,,,,,,,,posc_noss,30,15,15,-15,"[5, 2, 1, 0.5]",lin,1,1,8,5,1,5,start,5,15,15,,371.48631416703574,371.4936104589142,371.9818144168239,371.9818144168239,372.05582362483256,372.05582362483256,372.05582362483256,372.5239170000423,1,,,,,,,,,,,,,,,gabriel,001,2025-08-18_15h47.50.623,tilt_staircase,2024.2.4,None,2025-08-18 15h48.06.927580 -0400,
,,,1,0,1,,,,,,,,,,,,,,,,,,1,0,1,0,372.5313260839321,,,,,,,,,,,,,,,,,,,,,,,,,,,,,,,,,,,,,,,,,,,,,,,,,,,,,,,,,,,,,,,,,,negc_negs,30,-15,15,-15,"[5, 2, 1, 0.5]",lin,1,1,8,0,2,6,up,5,-10,-10,-30,372.52430658391677,372.5313260839321,373.0250542089343,373.0250542089343,373.09938795887865,373.09938795887865,373.09938795887865,373.7188764589373,0,,,,,,,,,,,,,,,gabriel,001,2025-08-18_15h47.50.623,tilt_staircase,2024.2.4,None,2025-08-18 15h48.06.927580 -0400,
,,,1,0,1,,,,,,,,,,,,,,,,,,1,0,1,0,373.72704704198986,,,,,,,,,,,,,,,,,,,,,,,,,,,,,,,,,,,,,,,,,,,,,,,,,,,,,,,,,,,,,,,,,,posc_noss,30,15,15,-15,"[5, 2, 1, 0.5]",lin,1,1,8,5,2,7,down,5,10,10,,373.72030854201876,373.72704704198986,374.2148537498433,374.2148537498433,374.2892425840255,374.2892425840255,374.2892425840255,374.7407110000495,1,,,,,,,,,,,,,,,gabriel,001,2025-08-18_15h47.50.623,tilt_staircase,2024.2.4,None,2025-08-18 15h48.06.927580 -0400,
,,,1,0,1,,,,,,,,,,,,,,,,,,1,0,1,0,374.74896395904943,,,,,,,,,,,,,,,,,,,,,,,,,,,,,,,,,,,,,,,,,,,,,,,,,,,,,,,,,,,,,,,,,,posc_negs,30,15,15,-15,"[5, 2, 1, 0.5]",lin,1,1,8,1,2,8,down,5,10,10,-30,374.74201325001195,374.74896395904943,375.24025983386673,375.24025983386673,375.3164908338804,375.3164908338804,375.3164908338804,375.8237086250447,1,,,,,,,,,,,,,,,gabriel,001,2025-08-18_15h47.50.623,tilt_staircase,2024.2.4,None,2025-08-18 15h48.06.927580 -0400,
,,,1,0,1,,,,,,,,,,,,,,,,,,1,0,1,0,375.8321113749407,,,,,,,,,,,,,,,,,,,,,,,,,,,,,,,,,,,,,,,,,,,,,,,,,,,,,,,,,,,,,,,,,,negc_poss,30,-15,15,-15,"[5, 2, 1, 0.5]",lin,1,1,8,2,2,9,up,5,-10,-10,30,375.82478166697547,375.8321113749407,376.32491029193625,376.32491029193625,376.3991959998384,376.3991959998384,376.3991959998384,376.8934579999186,0,,,,,,,,,,,,,,,gabriel,001,2025-08-18_15h47.50.623,tilt_staircase,2024.2.4,None,2025-08-18 15h48.06.927580 -0400,
,,,1,0,1,,,,,,,,,,,,,,,,,,1,0,1,0,376.89917116682045,,,,,,,,,,,,,,,,,,,,,,,,,,,,,,,,,,,,,,,,,,,,,,,,,,,,,,,,,,,,,,,,,,posc_poss,30,15,15,-15,"[5, 2, 1, 0.5]",lin,1,1,8,3,2,10,down,5,10,10,30,376.8945414170157,376.89917116682045,377.39096808386967,377.39096808386967,377.4722727499902,377.46596149983816,377.46596149983816,378.0006465839688,1,,,,,,,,,,,,,,,gabriel,001,2025-08-18_15h47.50.623,tilt_staircase,2024.2.4,None,2025-08-18 15h48.06.927580 -0400,
,,,1,0,1,,,,,,,,,,,,,,,,,,1,0,1,0,378.00811183382757,,,,,,,,,,,,,,,,,,,,,,,,,,,,,,,,,,,,,,,,,,,,,,,,,,,,,,,,,,,,,,,,,,negc_noss,30,-15,15,-15,"[5, 2, 1, 0.5]",lin,1,1,8,4,2,11,up,5,-10,-10,,378.00160375004634,378.00811183382757,378.49946499988437,378.49946499988437,378.57256416697055,378.57256416697055,378.57256416697055,379.05582591705024,0,,,,,,,,,,,,,,,gabriel,001,2025-08-18_15h47.50.623,tilt_staircase,2024.2.4,None,2025-08-18 15h48.06.927580 -0400,
,,,1,0,1,,,,,,,,,,,,,,,,,,1,0,1,0,379.0647536669858,,,,,,,,,,,,,,,,,,,,,,,,,,,,,,,,,,,,,,,,,,,,,,,,,,,,,,,,,,,,,,,,,,posc_poss,30,15,15,-15,"[5, 2, 1, 0.5]",lin,1,1,8,3,3,12,down,5,5,5,30,379.05686241691,379.0647536669858,379.55775395897217,379.55775395897217,379.63274787482806,379.63274787482806,379.63274787482806,380.5839877920225,1,,,,,,,,,,,,,,,gabriel,001,2025-08-18_15h47.50.623,tilt_staircase,2024.2.4,None,2025-08-18 15h48.06.927580 -0400,
,,,1,0,1,,,,,,,,,,,,,,,,,,1,0,1,0,380.5921601250302,,,,,,,,,,,,,,,,,,,,,,,,,,,,,,,,,,,,,,,,,,,,,,,,,,,,,,,,,,,,,,,,,,posc_negs,30,15,15,-15,"[5, 2, 1, 0.5]",lin,1,1,8,1,3,13,down,5,5,5,-30,380.58501516701654,380.5921601250302,381.0824760419782,381.0824760419782,381.15577687486075,381.15577687486075,381.15577687486075,381.72052116692066,1,,,,,,,,,,,,,,,gabriel,001,2025-08-18_15h47.50.623,tilt_staircase,2024.2.4,None,2025-08-18 15h48.06.927580 -0400,
,,,1,0,1,,,,,,,,,,,,,,,,,,1,0,1,0,381.7326197088696,,,,,,,,,,,,,,,,,,,,,,,,,,,,,,,,,,,,,,,,,,,,,,,,,,,,,,,,,,,,,,,,,,negc_noss,30,-15,15,-15,"[5, 2, 1, 0.5]",lin,1,1,8,4,3,14,up,5,-5,-5,,381.72126899985597,381.7326197088696,382.2149634589441,382.2149634589441,382.29924220894463,382.2871359169949,382.2871359169949,382.934721916914,0,,,,,,,,,,,,,,,gabriel,001,2025-08-18_15h47.50.623,tilt_staircase,2024.2.4,None,2025-08-18 15h48.06.927580 -0400,
,,,1,0,1,,,,,,,,,,,,,,,,,,1,0,1,0,382.9429404588882,,,,,,,,,,,,,,,,,,,,,,,,,,,,,,,,,,,,,,,,,,,,,,,,,,,,,,,,,,,,,,,,,,negc_poss,30,-15,15,-15,"[5, 2, 1, 0.5]",lin,1,1,8,2,3,15,up,5,-5,-5,30,382.93593274988234,382.9429404588882,383.4317645840347,383.4317645840347,383.5055212499574,383.5055212499574,383.5055212499574,384.04953199997544,0,,,,,,,,,,,,,,,gabriel,001,2025-08-18_15h47.50.623,tilt_staircase,2024.2.4,None,2025-08-18 15h48.06.927580 -0400,
,,,1,0,1,,,,,,,,,,,,,,,,,,1,0,1,0,384.0549291248899,,,,,,,,,,,,,,,,,,,,,,,,,,,,,,,,,,,,,,,,,,,,,,,,,,,,,,,,,,,,,,,,,,posc_noss,30,15,15,-15,"[5, 2, 1, 0.5]",lin,1,1,8,5,3,16,down,5,5,5,,384.0505543749314,384.0549291248899,384.5410206669476,384.5410206669476,384.6223900418263,384.61599791701883,384.61599791701883,385.1352347920183,1,,,,,,,,,,,,,,,gabriel,001,2025-08-18_15h47.50.623,tilt_staircase,2024.2.4,None,2025-08-18 15h48.06.927580 -0400,
,,,1,0,1,,,,,,,,,,,,,,,,,,1,0,1,0,385.14426174992695,,,,,,,,,,,,,,,,,,,,,,,,,,,,,,,,,,,,,,,,,,,,,,,,,,,,,,,,,,,,,,,,,,negc_negs,30,-15,15,-15,"[5, 2, 1, 0.5]",lin,1,1,8,0,3,17,up,5,-5,-5,-30,385.1370854168199,385.14426174992695,385.63203999982215,385.63203999982215,385.705708833877,385.705708833877,385.705708833877,386.2734456670005,1,,,,,,,,,,,,,,,gabriel,001,2025-08-18_15h47.50.623,tilt_staircase,2024.2.4,None,2025-08-18 15h48.06.927580 -0400,
,,,1,0,1,,,,,,,,,,,,,,,,,,1,0,1,0,386.28139008395374,,,,,,,,,,,,,,,,,,,,,,,,,,,,,,,,,,,,,,,,,,,,,,,,,,,,,,,,,,,,,,,,,,posc_noss,30,15,15,-15,"[5, 2, 1, 0.5]",lin,1,1,8,5,4,18,down,5,0,0,,386.27446812484413,386.28139008395374,386.77542941691354,386.77542941691354,386.84921629191376,386.84921629191376,386.84921629191376,387.7682254589163,1,,,,,,,,,,,,,,,gabriel,001,2025-08-18_15h47.50.623,tilt_staircase,2024.2.4,None,2025-08-18 15h48.06.927580 -0400,
,,,1,0,1,,,,,,,,,,,,,,,,,,1,0,1,0,387.77638887497596,,,,,,,,,,,,,,,,,,,,,,,,,,,,,,,,,,,,,,,,,,,,,,,,,,,,,,,,,,,,,,,,,,posc_negs,30,15,15,-15,"[5, 2, 1, 0.5]",lin,1,1,8,1,4,19,down,5,0,0,-30,387.76963566686027,387.77638887497596,388.2660738339182,388.2660738339182,388.3394127918873,388.3394127918873,388.3394127918873,388.8685541669838,1,,,,,,,,,,,,,,,gabriel,001,2025-08-18_15h47.50.623,tilt_staircase,2024.2.4,None,2025-08-18 15h48.06.927580 -0400,
,,,1,0,1,,,,,,,,,,,,,,,,,,1,0,1,0,388.8771146668587,,,,,,,,,,,,,,,,,,,,,,,,,,,,,,,,,,,,,,,,,,,,,,,,,,,,,,,,,,,,,,,,,,negc_negs,30,-15,15,-15,"[5, 2, 1, 0.5]",lin,1,1,8,0,4,20,down,2,-7,-7,-30,388.8704290839378,388.8771146668587,389.36487458390184,389.36487458390184,389.439012167044,389.439012167044,389.439012167044,389.9683159168344,0,,,,,,,,,,,,,,,gabriel,001,2025-08-18_15h47.50.623,tilt_staircase,2024.2.4,None,2025-08-18 15h48.06.927580 -0400,
,,,1,0,1,,,,,,,,,,,,,,,,,,1,0,1,0,389.9759864169173,,,,,,,,,,,,,,,,,,,,,,,,,,,,,,,,,,,,,,,,,,,,,,,,,,,,,,,,,,,,,,,,,,negc_noss,30,-15,15,-15,"[5, 2, 1, 0.5]",lin,1,1,8,4,4,21,up,5,0,0,,389.96945679187775,389.9759864169173,390.4658261248842,390.4658261248842,390.5368796249386,390.5368796249386,390.5368796249386,391.2182857498992,1,,,,,,,,,,,,,,,gabriel,001,2025-08-18_15h47.50.623,tilt_staircase,2024.2.4,None,2025-08-18 15h48.06.927580 -0400,
,,,1,0,1,,,,,,,,,,,,,,,,,,1,0,1,0,391.2273056670092,,,,,,,,,,,,,,,,,,,,,,,,,,,,,,,,,,,,,,,,,,,,,,,,,,,,,,,,,,,,,,,,,,negc_poss,30,-15,15,-15,"[5, 2, 1, 0.5]",lin,1,1,8,2,4,22,up,5,0,0,30,391.22011670889333,391.2273056670092,391.715685833944,391.715685833944,391.7892647499684,391.7892647499684,391.7892647499684,392.3062000419013,0,,,,,,,,,,,,,,,gabriel,001,2025-08-18_15h47.50.623,tilt_staircase,2024.2.4,None,2025-08-18 15h48.06.927580 -0400,
,,,1,0,1,,,,,,,,,,,,,,,,,,1,0,1,0,392.3147190839518,,,,,,,,,,,,,,,,,,,,,,,,,,,,,,,,,,,,,,,,,,,,,,,,,,,,,,,,,,,,,,,,,,posc_poss,30,15,15,-15,"[5, 2, 1, 0.5]",lin,1,1,8,3,4,23,down,5,0,0,30,392.30724604194984,392.3147190839518,392.80783737497404,392.80783737497404,392.8825079589151,392.8825079589151,392.8825079589151,393.4495164589025,0,,,,,,,,,,,,,,,gabriel,001,2025-08-18_15h47.50.623,tilt_staircase,2024.2.4,None,2025-08-18 15h48.06.927580 -0400,
,,,1,0,1,,,,,,,,,,,,,,,,,,1,0,1,0,393.45479849982075,,,,,,,,,,,,,,,,,,,,,,,,,,,,,,,,,,,,,,,,,,,,,,,,,,,,,,,,,,,,,,,,,,negc_poss,30,-15,15,-15,"[5, 2, 1, 0.5]",lin,1,1,8,2,5,24,up,5,5,5,30,393.4504913748242,393.45479849982075,393.94106945884414,393.94106945884414,394.02240079198964,394.01584954187274,394.01584954187274,394.9182343338616,1,,,,,,,,,,,,,,,gabriel,001,2025-08-18_15h47.50.623,tilt_staircase,2024.2.4,None,2025-08-18 15h48.06.927580 -0400,
,,,1,0,1,,,,,,,,,,,,,,,,,,1,0,1,0,394.9271095418371,,,,,,,,,,,,,,,,,,,,,,,,,,,,,,,,,,,,,,,,,,,,,,,,,,,,,,,,,,,,,,,,,,posc_poss,30,15,15,-15,"[5, 2, 1, 0.5]",lin,1,1,8,3,5,25,up,2,2,2,30,394.9201037499588,394.9271095418371,395.41570641682483,395.41570641682483,395.4890554170124,395.4890554170124,395.4890554170124,395.9065156248398,0,,,,,,,,,,,,,,,gabriel,001,2025-08-18_15h47.50.623,tilt_staircase,2024.2.4,None,2025-08-18 15h48.06.927580 -0400,
,,,1,0,1,,,,,,,,,,,,,,,,,,1,0,1,0,395.91474129189737,,,,,,,,,,,,,,,,,,,,,,,,,,,,,,,,,,,,,,,,,,,,,,,,,,,,,,,,,,,,,,,,,,negc_noss,30,-15,15,-15,"[5, 2, 1, 0.5]",lin,1,1,8,4,5,26,down,2,-2,-2,,395.9075356668327,395.91474129189737,396.4084897090215,396.4084897090215,396.4825418340042,396.4825418340042,396.4825418340042,397.13404045882635,0,,,,,,,,,,,,,,,gabriel,001,2025-08-18_15h47.50.623,tilt_staircase,2024.2.4,None,2025-08-18 15h48.06.927580 -0400,
,,,1,0,1,,,,,,,,,,,,,,,,,,1,0,1,0,397.1422089168336,,,,,,,,,,,,,,,,,,,,,,,,,,,,,,,,,,,,,,,,,,,,,,,,,,,,,,,,,,,,,,,,,,posc_noss,30,15,15,-15,"[5, 2, 1, 0.5]",lin,1,1,8,5,5,27,down,5,-5,-5,,397.13511545886286,397.1422089168336,397.6325922089163,397.6325922089163,397.70592466695234,397.70592466695234,397.70592466695234,398.20706420904025,0,,,,,,,,,,,,,,,gabriel,001,2025-08-18_15h47.50.623,tilt_staircase,2024.2.4,None,2025-08-18 15h48.06.927580 -0400,
,,,1,0,1,,,,,,,,,,,,,,,,,,1,0,1,0,398.2150103750173,,,,,,,,,,,,,,,,,,,,,,,,,,,,,,,,,,,,,,,,,,,,,,,,,,,,,,,,,,,,,,,,,,negc_negs,30,-15,15,-15,"[5, 2, 1, 0.5]",lin,1,1,8,0,5,28,up,1,-6,-6,-30,398.2082157919649,398.2150103750173,398.7081647498999,398.7081647498999,398.7829680000432,398.7829680000432,398.7829680000432,399.3047477088403,1,,,,,,,,,,,,,,,gabriel,001,2025-08-18_15h47.50.623,tilt_staircase,2024.2.4,None,2025-08-18 15h48.06.927580 -0400,
,,,1,0,1,,,,,,,,,,,,,,,,,,1,0,1,0,399.3147679588292,,,,,,,,,,,,,,,,,,,,,,,,,,,,,,,,,,,,,,,,,,,,,,,,,,,,,,,,,,,,,,,,,,posc_negs,30,15,15,-15,"[5, 2, 1, 0.5]",lin,1,1,8,1,5,29,down,5,-5,-5,-30,399.3057869998738,399.3147679588292,399.79920049989596,399.79920049989596,399.8827776249964,399.87150595895946,399.87150595895946,400.4061709169764,1,,,,,,,,,,,,,,,gabriel,001,2025-08-18_15h47.50.623,tilt_staircase,2024.2.4,None,2025-08-18 15h48.06.927580 -0400,
,,,1,0,1,,,,,,,,,,,,,,,,,,1,0,1,0,400.41467574983835,,,,,,,,,,,,,,,,,,,,,,,,,,,,,,,,,,,,,,,,,,,,,,,,,,,,,,,,,,,,,,,,,,negc_negs,30,-15,15,-15,"[5, 2, 1, 0.5]",lin,1,1,8,0,6,30,down,0.5,-6.5,-6.5,-30,400.40719254198484,400.41467574983835,400.8980474588461,400.8980474588461,400.9824879169464,400.97162829199806,400.97162829199806,401.51741912495345,0,,,,,,,,,,,,,,,gabriel,001,2025-08-18_15h47.50.623,tilt_staircase,2024.2.4,None,2025-08-18 15h48.06.927580 -0400,
,,,1,0,1,,,,,,,,,,,,,,,,,,1,0,1,0,401.52507712482475,,,,,,,,,,,,,,,,,,,,,,,,,,,,,,,,,,,,,,,,,,,,,,,,,,,,,,,,,,,,,,,,,,posc_poss,30,15,15,-15,"[5, 2, 1, 0.5]",lin,1,1,8,3,6,31,up,2,4,4,30,401.51872216700576,401.52507712482475,402.01580537483096,402.01580537483096,402.0888522500172,402.0888522500172,402.0888522500172,402.88457758398727,1,,,,,,,,,,,,,,,gabriel,001,2025-08-18_15h47.50.623,tilt_staircase,2024.2.4,None,2025-08-18 15h48.06.927580 -0400,
,,,1,0,1,,,,,,,,,,,,,,,,,,1,0,1,0,402.89211070886813,,,,,,,,,,,,,,,,,,,,,,,,,,,,,,,,,,,,,,,,,,,,,,,,,,,,,,,,,,,,,,,,,,negc_poss,30,-15,15,-15,"[5, 2, 1, 0.5]",lin,1,1,8,2,6,32,down,2,3,3,30,402.88557495898567,402.89211070886813,403.3824434999842,403.3824434999842,403.45572733390145,403.45572733390145,403.45572733390145,404.2101307499688,0,,,,,,,,,,,,,,,gabriel,001,2025-08-18_15h47.50.623,tilt_staircase,2024.2.4,None,2025-08-18 15h48.06.927580 -0400,
,,,1,0,1,,,,,,,,,,,,,,,,,,1,0,1,0,404.2157859168947,,,,,,,,,,,,,,,,,,,,,,,,,,,,,,,,,,,,,,,,,,,,,,,,,,,,,,,,,,,,,,,,,,posc_negs,30,15,15,-15,"[5, 2, 1, 0.5]",lin,1,1,8,1,6,33,down,5,-10,-10,-30,404.2112240418792,404.2157859168947,404.70834379200824,404.70834379200824,404.7883228750434,404.78240224998444,404.78240224998444,405.3414385840297,0,,,,,,,,,,,,,,,gabriel,001,2025-08-18_15h47.50.623,tilt_staircase,2024.2.4,None,2025-08-18 15h48.06.927580 -0400,
,,,1,0,1,,,,,,,,,,,,,,,,,,1,0,1,0,405.35123345884494,,,,,,,,,,,,,,,,,,,,,,,,,,,,,,,,,,,,,,,,,,,,,,,,,,,,,,,,,,,,,,,,,,posc_noss,30,15,15,-15,"[5, 2, 1, 0.5]",lin,1,1,8,5,6,34,up,2,-3,-3,,405.34263429185376,405.35123345884494,405.84221779182553,405.84221779182553,405.9158247918822,405.9158247918822,405.9158247918822,406.37279495899566,0,,,,,,,,,,,,,,,gabriel,001,2025-08-18_15h47.50.623,tilt_staircase,2024.2.4,None,2025-08-18 15h48.06.927580 -0400,
,,,1,0,1,,,,,,,,,,,,,,,,,,1,0,1,0,406.38142979191616,,,,,,,,,,,,,,,,,,,,,,,,,,,,,,,,,,,,,,,,,,,,,,,,,,,,,,,,,,,,,,,,,,negc_noss,30,-15,15,-15,"[5, 2, 1, 0.5]",lin,1,1,8,4,6,35,up,1,-1,-1,,406.3737890420016,406.38142979191616,406.87401170888916,406.87401170888916,406.94919616682455,406.94919616682455,406.94919616682455,407.40038733393885,0,,,,,,,,,,,,,,,gabriel,001,2025-08-18_15h47.50.623,tilt_staircase,2024.2.4,None,2025-08-18 15h48.06.927580 -0400,
,,,1,0,1,,,,,,,,,,,,,,,,,,1,0,1,0,407.40787820890546,,,,,,,,,,,,,,,,,,,,,,,,,,,,,,,,,,,,,,,,,,,,,,,,,,,,,,,,,,,,,,,,,,posc_poss,30,15,15,-15,"[5, 2, 1, 0.5]",lin,1,1,8,3,7,36,down,1,3,3,30,407.4013454169035,407.40787820890546,407.8981054588221,407.8981054588221,407.9708306668326,407.9708306668326,407.9708306668326,408.48493791697547,0,,,,,,,,,,,,,,,gabriel,001,2025-08-18_15h47.50.623,tilt_staircase,2024.2.4,None,2025-08-18 15h48.06.927580 -0400,
,,,1,0,1,,,,,,,,,,,,,,,,,,1,0,1,0,408.4935936250258,,,,,,,,,,,,,,,,,,,,,,,,,,,,,,,,,,,,,,,,,,,,,,,,,,,,,,,,,,,,,,,,,,posc_negs,30,15,15,-15,"[5, 2, 1, 0.5]",lin,1,1,8,1,7,37,up,2,-8,-8,-30,408.4864043339621,408.4935936250258,408.98192320903763,408.98192320903763,409.05548087484203,409.05548087484203,409.05548087484203,409.5682098339312,0,,,,,,,,,,,,,,,gabriel,001,2025-08-18_15h47.50.623,tilt_staircase,2024.2.4,None,2025-08-18 15h48.06.927580 -0400,
,,,1,0,1,,,,,,,,,,,,,,,,,,1,0,1,0,409.5771584168542,,,,,,,,,,,,,,,,,,,,,,,,,,,,,,,,,,,,,,,,,,,,,,,,,,,,,,,,,,,,,,,,,,negc_negs,30,-15,15,-15,"[5, 2, 1, 0.5]",lin,1,1,8,0,7,38,up,0.5,-6.0,-6.0,-30,409.56994983390905,409.5771584168542,410.0646988749504,410.0646988749504,410.1388442090247,410.1388442090247,410.1388442090247,410.77313412493095,0,,,,,,,,,,,,,,,gabriel,001,2025-08-18_15h47.50.623,tilt_staircase,2024.2.4,None,2025-08-18 15h48.06.927580 -0400,
,,,1,0,1,,,,,,,,,,,,,,,,,,1,0,1,0,410.7811899590306,,,,,,,,,,,,,,,,,,,,,,,,,,,,,,,,,,,,,,,,,,,,,,,,,,,,,,,,,,,,,,,,,,posc_noss,30,15,15,-15,"[5, 2, 1, 0.5]",lin,1,1,8,5,7,39,up,2,-1,-1,,410.7743535840418,410.7811899590306,411.27526912488975,411.27526912488975,411.3492937090341,411.3492937090341,411.3492937090341,412.65663433400914,1,,,,,,,,,,,,,,,gabriel,001,2025-08-18_15h47.50.623,tilt_staircase,2024.2.4,None,2025-08-18 15h48.06.927580 -0400,
,,,1,0,1,,,,,,,,,,,,,,,,,,1,0,1,0,412.66482804203406,,,,,,,,,,,,,,,,,,,,,,,,,,,,,,,,,,,,,,,,,,,,,,,,,,,,,,,,,,,,,,,,,,negc_poss,30,-15,15,-15,"[5, 2, 1, 0.5]",lin,1,1,8,2,7,40,up,1,4,4,30,412.6576606668532,412.66482804203406,413.15578529192135,413.15578529192135,413.23249233397655,413.23249233397655,413.23249233397655,413.9092965419404,0,,,,,,,,,,,,,,,gabriel,001,2025-08-18_15h47.50.623,tilt_staircase,2024.2.4,None,2025-08-18 15h48.06.927580 -0400,
,,,1,0,1,,,,,,,,,,,,,,,,,,1,0,1,0,413.9146815838758,,,,,,,,,,,,,,,,,,,,,,,,,,,,,,,,,,,,,,,,,,,,,,,,,,,,,,,,,,,,,,,,,,negc_noss,30,-15,15,-15,"[5, 2, 1, 0.5]",lin,1,1,8,4,7,41,up,1,0,0,,413.9102970419917,413.9146815838758,414.4072067919187,414.4072067919187,414.4883000839036,414.48244212497957,414.48244212497957,415.0260626669042,0,,,,,,,,,,,,,,,gabriel,001,2025-08-18_15h47.50.623,tilt_staircase,2024.2.4,None,2025-08-18 15h48.06.927580 -0400,
,,,1,0,1,,,,,,,,,,,,,,,,,,1,0,1,0,415.0314417919144,,,,,,,,,,,,,,,,,,,,,,,,,,,,,,,,,,,,,,,,,,,,,,,,,,,,,,,,,,,,,,,,,,posc_poss,30,15,15,-15,"[5, 2, 1, 0.5]",lin,1,1,8,3,8,42,up,0.5,3.5,3.5,30,415.0270952919964,415.0314417919144,415.52424129191786,415.52424129191786,415.6051567089744,415.5991527920123,415.5991527920123,416.13485516700894,0,,,,,,,,,,,,,,,gabriel,001,2025-08-18_15h47.50.623,tilt_staircase,2024.2.4,None,2025-08-18 15h48.06.927580 -0400,
,,,1,0,1,,,,,,,,,,,,,,,,,,1,0,1,0,416.1426654998213,,,,,,,,,,,,,,,,,,,,,,,,,,,,,,,,,,,,,,,,,,,,,,,,,,,,,,,,,,,,,,,,,,negc_poss,30,-15,15,-15,"[5, 2, 1, 0.5]",lin,1,1,8,2,8,43,up,1,5,5,30,416.1361262919381,416.1426654998213,416.63226487487555,416.63226487487555,416.70566266682,416.70566266682,416.70566266682,417.26698058401234,0,,,,,,,,,,,,,,,gabriel,001,2025-08-18_15h47.50.623,tilt_staircase,2024.2.4,None,2025-08-18 15h48.06.927580 -0400,
,,,1,0,1,,,,,,,,,,,,,,,,,,1,0,1,0,417.27441324992105,,,,,,,,,,,,,,,,,,,,,,,,,,,,,,,,,,,,,,,,,,,,,,,,,,,,,,,,,,,,,,,,,,negc_negs,30,-15,15,-15,"[5, 2, 1, 0.5]",lin,1,1,8,0,8,44,up,0.5,-5.5,-5.5,-30,417.2679254170507,417.27441324992105,417.7658054588828,417.7658054588828,417.8388389998581,417.8388389998581,417.8388389998581,418.5402489169501,0,,,,,,,,,,,,,,,gabriel,001,2025-08-18_15h47.50.623,tilt_staircase,2024.2.4,None,2025-08-18 15h48.06.927580 -0400,
,,,1,0,1,,,,,,,,,,,,,,,,,,1,0,1,0,418.5485809999518,,,,,,,,,,,,,,,,,,,,,,,,,,,,,,,,,,,,,,,,,,,,,,,,,,,,,,,,,,,,,,,,,,posc_noss,30,15,15,-15,"[5, 2, 1, 0.5]",lin,1,1,8,5,8,45,down,1,-2,-2,,418.5413154589478,418.5485809999518,419.04156979196705,419.04156979196705,419.1156563749537,419.1156563749537,419.1156563749537,419.501292666886,0,,,,,,,,,,,,,,,gabriel,001,2025-08-18_15h47.50.623,tilt_staircase,2024.2.4,None,2025-08-18 15h48.06.927580 -0400,
,,,1,0,1,,,,,,,,,,,,,,,,,,1,0,1,0,419.5102186249569,,,,,,,,,,,,,,,,,,,,,,,,,,,,,,,,,,,,,,,,,,,,,,,,,,,,,,,,,,,,,,,,,,posc_negs,30,15,15,-15,"[5, 2, 1, 0.5]",lin,1,1,8,1,8,46,up,2,-6,-6,-30,419.50352737493813,419.5102186249569,419.9990415838547,419.9990415838547,420.07193291699514,420.07193291699514,420.07193291699514,420.6230597498361,0,,,,,,,,,,,,,,,gabriel,001,2025-08-18_15h47.50.623,tilt_staircase,2024.2.4,None,2025-08-18 15h48.06.927580 -0400,
,,,1,0,1,,,,,,,,,,,,,,,,,,1,0,1,0,420.6313787919935,,,,,,,,,,,,,,,,,,,,,,,,,,,,,,,,,,,,,,,,,,,,,,,,,,,,,,,,,,,,,,,,,,negc_noss,30,-15,15,-15,"[5, 2, 1, 0.5]",lin,1,1,8,4,8,47,up,1,1,1,,420.6240636250004,420.6313787919935,421.1249873749912,421.1249873749912,421.1997449588962,421.1997449588962,421.1997449588962,421.7727830838412,1,,,,,,,,,,,,,,,gabriel,001,2025-08-18_15h47.50.623,tilt_staircase,2024.2.4,None,2025-08-18 15h48.06.927580 -0400,
