center,surround,type,surr_type,surr_opacity,thisN,thisTrialN,thisRepN,resp.keys,resp.rt,resp.duration,key_resp_10.keys,key_resp_10.rt,key_resp_10.duration,practice_no_time.thisRepN,practice_no_time.thisTrialN,practice_no_time.thisN,practice_no_time.thisIndex,practice_timed.thisRepN,practice_timed.thisTrialN,practice_timed.thisN,practice_timed.thisIndex,trials.thisRepN,trials.thisTrialN,trials.thisN,trials.thisIndex,thisRow.t,notes,instr.started,text_5.started,key_resp_2.started,instr.stopped,key_resp_2.keys,key_resp_2.rt,key_resp_2.duration,instr2.started,text_6.started,key_resp_6.started,instr2.stopped,key_resp_6.keys,key_resp_6.rt,key_resp_6.duration,instr3.started,text_8.started,key_resp_5.started,instr3.stopped,key_resp_5.keys,key_resp_5.rt,key_resp_5.duration,start_instr.started,text_13.started,key_resp_8.started,start_instr.stopped,key_resp_8.keys,key_resp_8.rt,key_resp_8.duration,trial.started,resp.started,surround_grating.started,center_grating.started,surround_grating.stopped,center_grating.stopped,trial.stopped,trials.resp.keys,trials.resp.rt,trials.resp.duration,break_2.started,break_2.stopped,trials.key_resp_10.keys,text_2.started,key_resp_10.started,trials.key_resp_10.rt,trials.key_resp_10.duration,end.started,text_14.started,key_resp.started,end.stopped,key_resp.keys,key_resp.rt,key_resp.duration,sub,ses,date,expName,psychopyVersion,frameRate,expStart,
,,,,,,,,,,,,,,,,,,,,,,,,,,,,0.01029083295725286,0.017124999954830855,0.017124999954830855,34.617411874991376,space,34.546338625019416,None,,,,,,,,,,,,,,,,,,,,,,,,,,,,,,,,,,,,,,,,,,,,,,nateheller,0,2025-09-11_15h20.59.253,tilt_mocs,2024.2.4,None,2025-09-11 15h21.16.577422 -0400,
,,,,,,,,,,,,,,,,,,,,,,,,,,,,,,,,,,,34.61748274997808,34.63722312496975,34.63722312496975,37.340075916959904,space,2.6919033749727532,None,,,,,,,,,,,,,,,,,,,,,,,,,,,,,,,,,,,,,,,nateheller,0,2025-09-11_15h20.59.253,tilt_mocs,2024.2.4,None,2025-09-11 15h21.16.577422 -0400,
,,,,,,,,,,,,,,,,,,,,,,,,,,,,,,,,,,,,,,,,,,37.365264749969356,37.37544145795982,37.37544145795982,42.088915874948725,space,4.706522374995984,None,,,,,,,,,,,,,,,,,,,,,,,,,,,,,,,,nateheller,0,2025-09-11_15h20.59.253,tilt_mocs,2024.2.4,None,2025-09-11 15h21.16.577422 -0400,
,,,,,,,,,,,,,,,,,,,,,,,,,,,,,,,,,,,,,,,,,,,,,,,,,42.1042852079845,42.1150121249957,42.1150121249957,53.55543004197534,space,11.433155999984592,None,,,,,,,,,,,,,,,,,,,,,,,,,nateheller,0,2025-09-11_15h20.59.253,tilt_mocs,2024.2.4,None,2025-09-11 15h21.16.577422 -0400,
2.6944444444444446,15.0,p2,poss,100,0,0,0,right,1.3727694579865783,None,None,,,,,,,,,,,0,0,0,204,53.58280645799823,,,,,,,,,,,,,,,,,,,,,,,,,,,,,,53.57778083300218,53.58280645799823,54.05447358300444,54.05447358300444,54.12453212495893,54.12453212495893,55.05636449996382,right,1.3727694579865783,None,55.05641120800283,55.05643008300103,None,,,,,,,,,,,,nateheller,0,2025-09-11_15h20.59.253,tilt_mocs,2024.2.4,None,2025-09-11 15h21.16.577422 -0400,
1.1944444444444444,15.0,m1,poss,100,1,1,0,left,1.0253917079535313,None,None,,,,,,,,,,,0,1,1,86,55.06005695799831,,,,,,,,,,,,,,,,,,,,,,,,,,,,,,55.057148749998305,55.06005695799831,55.55377979198238,55.55377979198238,55.627017833001446,55.627017833001446,56.090672291989904,left,1.0253917079535313,None,56.09089862497058,56.090966457966715,None,,,,,,,,,,,,nateheller,0,2025-09-11_15h20.59.253,tilt_mocs,2024.2.4,None,2025-09-11 15h21.16.577422 -0400,
0.4722222222222222,0.0,m1,noss,0,2,2,0,right,0.9419240839779377,None,None,,,,,,,,,,,0,2,2,606,56.102851125004236,,,,,,,,,,,,,,,,,,,,,,,,,,,,,,56.09388141694944,56.102851125004236,56.586559874995146,56.586559874995146,56.66105808300199,56.66105808300199,57.05713479197584,right,0.9419240839779377,None,57.05732891696971,57.057392541959416,None,,,,,,,,,,,,nateheller,0,2025-09-11_15h20.59.253,tilt_mocs,2024.2.4,None,2025-09-11 15h21.16.577422 -0400,
-1.9166666666666663,-15.0,p1,negs,100,3,3,0,right,1.1123554999940097,None,None,,,,,,,,,,,0,3,3,452,57.067005457996856,,,,,,,,,,,,,,,,,,,,,,,,,,,,,,57.05993679194944,57.067005457996856,57.55389766697772,57.55389766697772,57.624780207988806,57.624780207988806,58.18991204199847,right,1.1123554999940097,None,58.19001462496817,58.19005604198901,None,,,,,,,,,,,,nateheller,0,2025-09-11_15h20.59.253,tilt_mocs,2024.2.4,None,2025-09-11 15h21.16.577422 -0400,
-0.9166666666666664,-15.0,p3,negs,100,4,4,0,right,1.0280875829630531,None,None,,,,,,,,,,,0,4,4,554,58.19915379199665,,,,,,,,,,,,,,,,,,,,,,,,,,,,,,58.191873667004984,58.19915379199665,58.68659191695042,58.68659191695042,58.76028087496525,58.76028087496525,59.230263000004925,right,1.0280875829630531,None,59.23048662499059,59.23055720794946,None,,,,,,,,,,,,nateheller,0,2025-09-11_15h20.59.253,tilt_mocs,2024.2.4,None,2025-09-11 15h21.16.577422 -0400,
-3.9166666666666665,-15.0,m3,negs,100,5,5,0,left,1.1187552500050515,None,None,,,,,,,,,,,0,5,5,282,59.241375332989264,,,,,,,,,,,,,,,,,,,,,,,,,,,,,,59.23352512496058,59.241375332989264,59.73017279198393,59.73017279198393,59.80429033294786,59.80429033294786,60.36322708299849,left,1.1187552500050515,None,60.36343791696709,60.363505916961,None,,,,,,,,,,,,nateheller,0,2025-09-11_15h20.59.253,tilt_mocs,2024.2.4,None,2025-09-11 15h21.16.577422 -0400,
-2.4166666666666665,-15.0,PSE,negs,100,6,6,0,right,0.96442766697146,None,None,,,,,,,,,,,0,6,6,402,60.37451875000261,,,,,,,,,,,,,,,,,,,,,,,,,,,,,,60.36643749999348,60.37451875000261,60.86282870796276,60.86282870796276,60.938053332967684,60.938053332967684,61.35217512497911,right,0.96442766697146,None,61.352285749977455,61.35233479196904,None,,,,,,,,,,,,nateheller,0,2025-09-11_15h20.59.253,tilt_mocs,2024.2.4,None,2025-09-11 15h21.16.577422 -0400,
-1.4166666666666663,-15.0,p2,negs,100,7,7,0,right,1.040050124982372,None,None,,,,,,,,,,,0,7,7,490,61.3581836669473,,,,,,,,,,,,,,,,,,,,,,,,,,,,,,61.35447833297076,61.3581836669473,61.846884083002806,61.846884083002806,61.92132537497673,61.92132537497673,62.40709724999033,right,1.040050124982372,None,62.40725870797178,62.40731208299985,None,,,,,,,,,,,,nateheller,0,2025-09-11_15h20.59.253,tilt_mocs,2024.2.4,None,2025-09-11 15h21.16.577422 -0400,
-0.9166666666666664,-15.0,p3,negs,100,8,8,0,right,1.0546946660033427,None,None,,,,,,,,,,,0,8,8,533,62.41732670797501,,,,,,,,,,,,,,,,,,,,,,,,,,,,,,62.40982537495438,62.41732670797501,62.90332399995532,62.90332399995532,62.97574299998814,62.97574299998814,63.47504020796623,right,1.0546946660033427,None,63.47524929197971,63.47530900000129,None,,,,,,,,,,,,nateheller,0,2025-09-11_15h20.59.253,tilt_mocs,2024.2.4,None,2025-09-11 15h21.16.577422 -0400,
-0.9166666666666664,-15.0,p3,negs,100,9,9,0,right,0.9616684159846045,None,None,,,,,,,,,,,0,9,9,536,63.484973457991146,,,,,,,,,,,,,,,,,,,,,,,,,,,,,,63.477840874984395,63.484973457991146,63.969827457971405,63.969827457971405,64.04342612496112,64.04342612496112,64.45722029195167,right,0.9616684159846045,None,64.45741441700375,64.45748287497554,None,,,,,,,,,,,,nateheller,0,2025-09-11_15h20.59.253,tilt_mocs,2024.2.4,None,2025-09-11 15h21.16.577422 -0400,
-2.4166666666666665,-15.0,PSE,negs,100,10,10,0,right,0.9435631670057774,None,None,,,,,,,,,,,0,10,10,405,64.4695332919946,,,,,,,,,,,,,,,,,,,,,,,,,,,,,,64.46047287498368,64.4695332919946,64.9533029999584,64.9533029999584,65.02684341697022,65.02684341697022,65.42330395797035,right,0.9435631670057774,None,65.42346216697479,65.42351658298867,None,,,,,,,,,,,,nateheller,0,2025-09-11_15h20.59.253,tilt_mocs,2024.2.4,None,2025-09-11 15h21.16.577422 -0400,
-2.4166666666666665,-15.0,PSE,negs,100,11,11,0,left,1.1463398749474436,None,None,,,,,,,,,,,0,11,11,435,65.43264074996114,,,,,,,,,,,,,,,,,,,,,,,,,,,,,,65.42566762497881,65.43264074996114,65.92039695795393,65.92039695795393,65.99172204197384,65.99172204197384,66.59090612496948,left,1.1463398749474436,None,66.59113804198569,66.59120745799737,None,,,,,,,,,,,,nateheller,0,2025-09-11_15h20.59.253,tilt_mocs,2024.2.4,None,2025-09-11 15h21.16.577422 -0400,
1.5277777777777777,0.0,p3,noss,0,12,12,0,right,0.9195051669958048,None,None,,,,,,,,,,,0,12,12,697,66.60353587497957,,,,,,,,,,,,,,,,,,,,,,,,,,,,,,66.59419533296023,66.60353587497957,67.08678362495266,67.08678362495266,67.16020929196384,67.16020929196384,67.52988216700032,right,0.9195051669958048,None,67.5300475829863,67.53011204197537,None,,,,,,,,,,,,nateheller,0,2025-09-11_15h20.59.253,tilt_mocs,2024.2.4,None,2025-09-11 15h21.16.577422 -0400,
-3.9166666666666665,-15.0,m3,negs,100,13,13,0,left,1.2349362500244752,None,None,,,,,,,,,,,0,13,13,300,67.54114954196848,,,,,,,,,,,,,,,,,,,,,,,,,,,,,,67.53309708298184,67.54114954196848,68.03049716696842,68.03049716696842,68.10473083297256,68.10473083297256,68.77893154195044,left,1.2349362500244752,None,68.77905074995942,68.77909874997567,None,,,,,,,,,,,,nateheller,0,2025-09-11_15h20.59.253,tilt_mocs,2024.2.4,None,2025-09-11 15h21.16.577422 -0400,
0.6944444444444444,15.0,m2,poss,100,14,14,0,left,1.0086902500479482,None,None,,,,,,,,,,,0,14,14,76,68.80440308299148,,,,,,,,,,,,,,,,,,,,,,,,,,,,,,68.78131083300104,68.80440308299148,69.27998691698303,69.27998691698303,69.35458187496988,69.35458187496988,69.8243759169709,left,1.0086902500479482,None,69.82456108299084,69.82462491700426,None,,,,,,,,,,,,nateheller,0,2025-09-11_15h20.59.253,tilt_mocs,2024.2.4,None,2025-09-11 15h21.16.577422 -0400,
1.5277777777777777,0.0,p3,noss,0,15,15,0,right,0.9425061250221916,None,None,,,,,,,,,,,0,15,15,695,69.83701820799615,,,,,,,,,,,,,,,,,,,,,,,,,,,,,,69.82752066699322,69.83701820799615,70.31987895799102,70.31987895799102,70.39359004196012,70.39359004196012,70.79092237498844,right,0.9425061250221916,None,70.79114791698521,70.79121316695819,None,,,,,,,,,,,,nateheller,0,2025-09-11_15h20.59.253,tilt_mocs,2024.2.4,None,2025-09-11 15h21.16.577422 -0400,
-3.9166666666666665,-15.0,m3,negs,100,16,16,0,left,1.0282870000228286,None,None,,,,,,,,,,,0,16,16,296,70.80218454200076,,,,,,,,,,,,,,,,,,,,,,,,,,,,,,70.79406287497841,70.80218454200076,71.28681129199686,71.28681129199686,71.35825341695454,71.35825341695454,71.84114216698799,left,1.0282870000228286,None,71.84140054194722,71.84147312497953,None,,,,,,,,,,,,nateheller,0,2025-09-11_15h20.59.253,tilt_mocs,2024.2.4,None,2025-09-11 15h21.16.577422 -0400,
-1.4166666666666663,-15.0,p2,negs,100,17,17,0,right,0.9746040000463836,None,None,,,,,,,,,,,0,17,17,481,71.85420070798136,,,,,,,,,,,,,,,,,,,,,,,,,,,,,,71.84462658298435,71.85420070798136,72.33652824995806,72.33652824995806,72.41060520795872,72.41060520795872,72.84003254194977,right,0.9746040000463836,None,72.84013754199259,72.84017754194792,None,,,,,,,,,,,,nateheller,0,2025-09-11_15h20.59.253,tilt_mocs,2024.2.4,None,2025-09-11 15h21.16.577422 -0400,
3.1944444444444446,15.0,p3,poss,100,18,18,0,left,0.9758046250208281,None,None,,,,,,,,,,,0,18,18,276,72.84899187495466,,,,,,,,,,,,,,,,,,,,,,,,,,,,,,72.84204520797357,72.84899187495466,73.33658270799788,73.33658270799788,73.41008216695627,73.41008216695627,73.82919366698479,left,0.9758046250208281,None,73.82938762498088,73.82945308298804,None,,,,,,,,,,,,nateheller,0,2025-09-11_15h20.59.253,tilt_mocs,2024.2.4,None,2025-09-11 15h21.16.577422 -0400,
-2.9166666666666665,-15.0,m1,negs,100,19,19,0,left,1.6006272080121562,None,None,,,,,,,,,,,0,19,19,390,73.84086045797449,,,,,,,,,,,,,,,,,,,,,,,,,,,,,,73.83219408296281,73.84086045797449,74.329768333002,74.329768333002,74.40460870799143,74.40460870799143,75.445622291998,left,1.6006272080121562,None,75.44573037495138,75.44577087496873,None,,,,,,,,,,,,nateheller,0,2025-09-11_15h20.59.253,tilt_mocs,2024.2.4,None,2025-09-11 15h21.16.577422 -0400,
0.4722222222222222,0.0,m1,noss,0,20,20,0,right,1.0714377500116825,None,None,,,,,,,,,,,0,20,20,617,75.47091858298518,,,,,,,,,,,,,,,,,,,,,,,,,,,,,,75.44773908297066,75.47091858298518,75.94604008295573,75.94604008295573,76.02136283298023,76.02136283298023,76.54621462494833,right,1.0714377500116825,None,76.54633395798737,76.5463743750006,None,,,,,,,,,,,,nateheller,0,2025-09-11_15h20.59.253,tilt_mocs,2024.2.4,None,2025-09-11 15h21.16.577422 -0400,
1.1944444444444444,15.0,m1,poss,100,21,21,0,left,1.1041837919619866,None,None,,,,,,,,,,,0,21,21,102,76.55724424996879,,,,,,,,,,,,,,,,,,,,,,,,,,,,,,76.54886979196453,76.55724424996879,77.04610720794881,77.04610720794881,77.12130233296193,77.12130233296193,77.6742082919809,left,1.1041837919619866,None,77.67428429197753,77.67431658296846,None,,,,,,,,,,,,nateheller,0,2025-09-11_15h20.59.253,tilt_mocs,2024.2.4,None,2025-09-11 15h21.16.577422 -0400,
1.1944444444444444,15.0,m1,poss,100,22,22,0,left,1.2015839999658056,None,None,,,,,,,,,,,0,22,22,107,77.68771370797185,,,,,,,,,,,,,,,,,,,,,,,,,,,,,,77.67588299995987,77.68771370797185,78.17032679199474,78.17032679199474,78.24260412500007,78.24260412500007,78.89639041695045,left,1.2015839999658056,None,78.89659195794957,78.89666758297244,None,,,,,,,,,,,,nateheller,0,2025-09-11_15h20.59.253,tilt_mocs,2024.2.4,None,2025-09-11 15h21.16.577422 -0400,
2.6944444444444446,15.0,p2,poss,100,23,23,0,left,1.6326724159880541,None,None,,,,,,,,,,,0,23,23,200,78.90743570798077,,,,,,,,,,,,,,,,,,,,,,,,,,,,,,78.89959124999586,78.90743570798077,79.39659154199762,79.39659154199762,79.47109812498093,79.47109812498093,80.54641220800113,left,1.6326724159880541,None,80.54660287499428,80.54666179197375,None,,,,,,,,,,,,nateheller,0,2025-09-11_15h20.59.253,tilt_mocs,2024.2.4,None,2025-09-11 15h21.16.577422 -0400,
-1.9166666666666663,-15.0,p1,negs,100,24,24,0,right,1.064628874999471,None,None,,,,,,,,,,,0,24,24,469,80.55743212497327,,,,,,,,,,,,,,,,,,,,,,,,,,,,,,80.54936987499241,80.55743212497327,81.046910541947,81.046910541947,81.12125979195116,81.12125979195116,81.63272499997402,right,1.064628874999471,None,81.63281499996083,81.63285670796176,None,,,,,,,,,,,,nateheller,0,2025-09-11_15h20.59.253,tilt_mocs,2024.2.4,None,2025-09-11 15h21.16.577422 -0400,
1.1944444444444444,15.0,m1,poss,100,25,25,0,left,0.9880583340418525,None,None,,,,,,,,,,,0,25,25,93,81.64002866699593,,,,,,,,,,,,,,,,,,,,,,,,,,,,,,81.63452158297878,81.64002866699593,82.1291971669998,82.1291971669998,82.20446191699011,82.20446191699011,82.63095774996327,left,0.9880583340418525,None,82.63113895797869,82.63119887496578,None,,,,,,,,,,,,nateheller,0,2025-09-11_15h20.59.253,tilt_mocs,2024.2.4,None,2025-09-11 15h21.16.577422 -0400,
1.6944444444444444,15.0,PSE,poss,100,26,26,0,left,1.0132886249921285,None,None,,,,,,,,,,,0,26,26,139,82.64292116696015,,,,,,,,,,,,,,,,,,,,,,,,,,,,,,82.63393191696377,82.64292116696015,83.12953837495297,83.12953837495297,83.2048500419478,83.2048500419478,83.66355962498346,left,1.0132886249921285,None,83.66377412498696,83.6638441249961,None,,,,,,,,,,,,nateheller,0,2025-09-11_15h20.59.253,tilt_mocs,2024.2.4,None,2025-09-11 15h21.16.577422 -0400,
0.1944444444444444,15.0,m3,poss,100,27,27,0,left,1.1095971249742433,None,None,,,,,,,,,,,0,27,27,0,83.67458433296997,,,,,,,,,,,,,,,,,,,,,,,,,,,,,,83.66671016695909,83.67458433296997,84.1630562079954,84.1630562079954,84.23797550000018,84.23797550000018,84.7906746249646,left,1.1095971249742433,None,84.79090212495066,84.79096933297114,None,,,,,,,,,,,,nateheller,0,2025-09-11_15h20.59.253,tilt_mocs,2024.2.4,None,2025-09-11 15h21.16.577422 -0400,
-3.4166666666666665,-15.0,m2,negs,100,28,28,0,left,1.2021877500228584,None,None,,,,,,,,,,,0,28,28,330,84.80353920796188,,,,,,,,,,,,,,,,,,,,,,,,,,,,,,84.7939237919636,84.80353920796188,85.2877933330019,85.2877933330019,85.3598574999487,85.3598574999487,86.01126433297759,left,1.2021877500228584,None,86.01136679196497,86.01140712498454,None,,,,,,,,,,,,nateheller,0,2025-09-11_15h20.59.253,tilt_mocs,2024.2.4,None,2025-09-11 15h21.16.577422 -0400,
-3.4166666666666665,-15.0,m2,negs,100,29,29,0,right,1.3473642079625279,None,None,,,,,,,,,,,0,29,29,323,86.02060441696085,,,,,,,,,,,,,,,,,,,,,,,,,,,,,,86.01365824998356,86.02060441696085,86.50329995795619,86.50329995795619,86.5757329579792,86.5757329579792,87.3740387079888,right,1.3473642079625279,None,87.37425724999048,87.37432649999391,None,,,,,,,,,,,,nateheller,0,2025-09-11_15h20.59.253,tilt_mocs,2024.2.4,None,2025-09-11 15h21.16.577422 -0400,
-3.9166666666666665,-15.0,m3,negs,100,30,30,0,left,1.0761885000392795,None,None,,,,,,,,,,,0,30,30,284,87.38465737499064,,,,,,,,,,,,,,,,,,,,,,,,,,,,,,87.37701374996686,87.38465737499064,87.86983349994989,87.86983349994989,87.94332629197743,87.94332629197743,88.4707606669981,left,1.0761885000392795,None,88.470855499967,88.47089562495239,None,,,,,,,,,,,,nateheller,0,2025-09-11_15h20.59.253,tilt_mocs,2024.2.4,None,2025-09-11 15h21.16.577422 -0400,
0.1944444444444444,15.0,m3,poss,100,31,31,0,left,1.2674128329963423,None,None,,,,,,,,,,,0,31,31,6,88.47714508295758,,,,,,,,,,,,,,,,,,,,,,,,,,,,,,88.47262908297125,88.47714508295758,88.96234858297976,88.96234858297976,89.03800087497802,89.03800087497802,89.7581660419819,left,1.2674128329963423,None,89.758257999958,89.75829999998678,None,,,,,,,,,,,,nateheller,0,2025-09-11_15h20.59.253,tilt_mocs,2024.2.4,None,2025-09-11 15h21.16.577422 -0400,
1.1944444444444444,15.0,m1,poss,100,32,32,0,left,1.1481933750328608,None,None,,,,,,,,,,,0,32,32,117,89.77109866699902,,,,,,,,,,,,,,,,,,,,,,,,,,,,,,89.76004124997417,89.77109866699902,90.25375254196115,90.25375254196115,90.32446379197063,90.32446379197063,90.92375291697681,left,1.1481933750328608,None,90.92391766695073,90.92396695795469,None,,,,,,,,,,,,nateheller,0,2025-09-11_15h20.59.253,tilt_mocs,2024.2.4,None,2025-09-11 15h21.16.577422 -0400,
1.1944444444444444,15.0,m1,poss,100,33,33,0,left,1.4411713749868795,None,None,,,,,,,,,,,0,33,33,81,90.93406420794781,,,,,,,,,,,,,,,,,,,,,,,,,,,,,,90.92667879199143,90.93406420794781,91.41980204195715,91.41980204195715,91.49287616700167,91.49287616700167,92.37947862496367,left,1.4411713749868795,None,92.37964095798088,92.37971354200272,None,,,,,,,,,,,,nateheller,0,2025-09-11_15h20.59.253,tilt_mocs,2024.2.4,None,2025-09-11 15h21.16.577422 -0400,
0.6944444444444444,15.0,m2,poss,100,34,34,0,left,1.1076660419930704,None,None,,,,,,,,,,,0,34,34,72,92.39037870796164,,,,,,,,,,,,,,,,,,,,,,,,,,,,,,92.38254749996122,92.39037870796164,92.87957437499426,92.87957437499426,92.95469383295858,92.95469383295858,93.50694970798213,left,1.1076660419930704,None,93.50714687496657,93.5072110829642,None,,,,,,,,,,,,nateheller,0,2025-09-11_15h20.59.253,tilt_mocs,2024.2.4,None,2025-09-11 15h21.16.577422 -0400,
0.0277777777777777,0.0,PSE,noss,0,35,35,0,right,1.1305774169741198,None,None,,,,,,,,,,,0,35,35,620,93.5182194999652,,,,,,,,,,,,,,,,,,,,,,,,,,,,,,93.5104058329598,93.5182194999652,94.00314087496372,94.00314087496372,94.07705545797944,94.07705545797944,94.65744470799109,right,1.1305774169741198,None,94.65765279199695,94.657747499994,None,,,,,,,,,,,,nateheller,0,2025-09-11_15h20.59.253,tilt_mocs,2024.2.4,None,2025-09-11 15h21.16.577422 -0400,
-3.4166666666666665,-15.0,m2,negs,100,36,36,0,left,1.520562375022564,None,None,,,,,,,,,,,0,36,36,345,94.66929474996869,,,,,,,,,,,,,,,,,,,,,,,,,,,,,,94.66063758300152,94.66929474996869,95.15337466698838,95.15337466698838,95.22690791694913,95.22690791694913,96.19283629197162,left,1.520562375022564,None,96.19291937496746,96.19294770795386,None,,,,,,,,,,,,nateheller,0,2025-09-11_15h20.59.253,tilt_mocs,2024.2.4,None,2025-09-11 15h21.16.577422 -0400,
0.5277777777777778,0.0,p1,noss,0,37,37,0,right,1.0827381249982864,None,None,,,,,,,,,,,0,37,37,645,96.2036567920004,,,,,,,,,,,,,,,,,,,,,,,,,,,,,,96.19425758300349,96.2036567920004,96.6868259999901,96.6868259999901,96.75816737499554,96.75816737499554,97.28994245798094,right,1.0827381249982864,None,97.2902211669716,97.29030637495453,None,,,,,,,,,,,,nateheller,0,2025-09-11_15h20.59.253,tilt_mocs,2024.2.4,None,2025-09-11 15h21.16.577422 -0400,
-0.9166666666666664,-15.0,p3,negs,100,38,38,0,right,1.3447561250068247,None,None,,,,,,,,,,,0,38,38,549,97.30287270795088,,,,,,,,,,,,,,,,,,,,,,,,,,,,,,97.29320862499299,97.30287270795088,97.78676229197299,97.78676229197299,97.87014983297559,97.87014983297559,98.65685329196276,right,1.3447561250068247,None,98.65706466697156,98.65712633298244,None,,,,,,,,,,,,nateheller,0,2025-09-11_15h20.59.253,tilt_mocs,2024.2.4,None,2025-09-11 15h21.16.577422 -0400,
0.6944444444444444,15.0,m2,poss,100,39,39,0,left,1.2121866249945015,None,None,,,,,,,,,,,0,39,39,62,98.66851241700351,,,,,,,,,,,,,,,,,,,,,,,,,,,,,,98.66009029198904,98.66851241700351,99.1530794579885,99.1530794579885,99.22486008296255,99.22486008296255,99.89046520798001,left,1.2121866249945015,None,99.89065724995453,99.89071924996097,None,,,,,,,,,,,,nateheller,0,2025-09-11_15h20.59.253,tilt_mocs,2024.2.4,None,2025-09-11 15h21.16.577422 -0400,
-0.9166666666666664,-15.0,p3,negs,100,40,40,0,right,1.086065209005028,None,None,,,,,,,,,,,0,40,40,535,99.90274699998554,,,,,,,,,,,,,,,,,,,,,,,,,,,,,,99.89345208299346,99.90274699998554,100.38645904196892,100.38645904196892,100.46026720799273,100.46026720799273,100.99146770796506,right,1.086065209005028,None,100.99159083300037,100.99163574998965,None,,,,,,,,,,,,nateheller,0,2025-09-11_15h20.59.253,tilt_mocs,2024.2.4,None,2025-09-11 15h21.16.577422 -0400,
-1.9166666666666663,-15.0,p1,negs,100,41,41,0,right,1.3090410000295378,None,None,,,,,,,,,,,0,41,41,466,101.00072383298539,,,,,,,,,,,,,,,,,,,,,,,,,,,,,,100.99351574998582,101.00072383298539,101.48701024998445,101.48701024998445,101.55900508299237,101.55900508299237,102.31229333300143,right,1.3090410000295378,None,102.31239037495106,102.31243095797254,None,,,,,,,,,,,,nateheller,0,2025-09-11_15h20.59.253,tilt_mocs,2024.2.4,None,2025-09-11 15h21.16.577422 -0400,
0.1944444444444444,15.0,m3,poss,100,42,42,0,left,1.0447798750246875,None,None,,,,,,,,,,,0,42,42,8,102.3375148329651,,,,,,,,,,,,,,,,,,,,,,,,,,,,,,102.3142942499835,102.3375148329651,102.81336274999194,102.81336274999194,102.88798333297018,102.88798333297018,103.39046908298042,left,1.0447798750246875,None,103.39069579198258,103.39076683297753,None,,,,,,,,,,,,nateheller,0,2025-09-11_15h20.59.253,tilt_mocs,2024.2.4,None,2025-09-11 15h21.16.577422 -0400,
2.6944444444444446,15.0,p2,poss,100,43,43,0,right,1.1139091659570113,None,None,,,,,,,,,,,0,43,43,220,103.4016486670007,,,,,,,,,,,,,,,,,,,,,,,,,,,,,,103.39387104200432,103.4016486670007,103.88641966698924,103.88641966698924,103.95922370796325,103.95922370796325,104.52288470795611,right,1.1139091659570113,None,104.52295291697374,104.5229802079848,None,,,,,,,,,,,,nateheller,0,2025-09-11_15h20.59.253,tilt_mocs,2024.2.4,None,2025-09-11 15h21.16.577422 -0400,
-2.9166666666666665,-15.0,m1,negs,100,44,44,0,right,1.53229362500133,None,None,,,,,,,,,,,0,44,44,379,104.52951074996963,,,,,,,,,,,,,,,,,,,,,,,,,,,,,,104.52413504198194,104.52951074996963,105.01975516695529,105.01975516695529,105.09354162495583,105.09354162495583,106.07397999998648,right,1.53229362500133,None,106.0741897499538,106.07426024996676,None,,,,,,,,,,,,nateheller,0,2025-09-11_15h20.59.253,tilt_mocs,2024.2.4,None,2025-09-11 15h21.16.577422 -0400,
-0.9166666666666664,-15.0,p3,negs,100,45,45,0,right,1.1915215839981101,None,None,,,,,,,,,,,0,45,45,544,106.08617454196792,,,,,,,,,,,,,,,,,,,,,,,,,,,,,,106.07718558295164,106.08617454196792,106.56984583300073,106.56984583300073,106.64320820797002,106.64320820797002,107.2873729999992,right,1.1915215839981101,None,107.28746637498261,107.28750545799267,None,,,,,,,,,,,,nateheller,0,2025-09-11_15h20.59.253,tilt_mocs,2024.2.4,None,2025-09-11 15h21.16.577422 -0400,
3.1944444444444446,15.0,p3,poss,100,46,46,0,right,1.2169876669649966,None,None,,,,,,,,,,,0,46,46,259,107.2937445419957,,,,,,,,,,,,,,,,,,,,,,,,,,,,,,107.28921249997802,107.2937445419957,107.77995066699805,107.77995066699805,107.85452224995242,107.85452224995242,108.52459441695828,right,1.2169876669649966,None,108.52467974997126,108.52472020796267,None,,,,,,,,,,,,nateheller,0,2025-09-11_15h20.59.253,tilt_mocs,2024.2.4,None,2025-09-11 15h21.16.577422 -0400,
-0.9166666666666664,-15.0,p3,negs,100,47,47,0,right,1.084178792021703,None,None,,,,,,,,,,,0,47,47,531,108.53782083297847,,,,,,,,,,,,,,,,,,,,,,,,,,,,,,108.52643704199,108.53782083297847,109.02020666695898,109.02020666695898,109.093715957948,109.093715957948,109.62544400000479,right,1.084178792021703,None,109.62565008294769,109.62572449998697,None,,,,,,,,,,,,nateheller,0,2025-09-11_15h20.59.253,tilt_mocs,2024.2.4,None,2025-09-11 15h21.16.577422 -0400,
1.1944444444444444,15.0,m1,poss,100,48,48,0,left,1.3853630410158075,None,None,,,,,,,,,,,0,48,48,94,109.63701404200401,,,,,,,,,,,,,,,,,,,,,,,,,,,,,,109.62893287499901,109.63701404200401,110.11996404197998,110.11996404197998,110.19369174999883,110.19369174999883,111.03539341699798,left,1.3853630410158075,None,111.03548525000224,111.03552350000245,None,,,,,,,,,,,,nateheller,0,2025-09-11_15h20.59.253,tilt_mocs,2024.2.4,None,2025-09-11 15h21.16.577422 -0400,
0.5277777777777778,0.0,p1,noss,0,49,49,0,left,1.5200271250214428,None,None,,,,,,,,,,,0,49,49,643,111.04159595799865,,,,,,,,,,,,,,,,,,,,,,,,,,,,,,111.03724904195406,111.04159595799865,111.52992304199142,111.52992304199142,111.60447199997725,111.60447199997725,112.57390329195186,left,1.5200271250214428,None,112.57412120798836,112.57418499997584,None,,,,,,,,,,,,nateheller,0,2025-09-11_15h20.59.253,tilt_mocs,2024.2.4,None,2025-09-11 15h21.16.577422 -0400,
1.0277777777777777,0.0,p2,noss,0,50,50,0,right,1.0973875420168042,None,None,,,,,,,,,,,0,50,50,660,112.58716345799621,,,,,,,,,,,,,,,,,,,,,,,,,,,,,,112.57711670798017,112.58716345799621,113.06995441694744,113.06995441694744,113.15338699996937,113.15338699996937,113.68901695800014,right,1.0973875420168042,None,113.68913554196479,113.68918645795202,None,,,,,,,,,,,,nateheller,0,2025-09-11_15h20.59.253,tilt_mocs,2024.2.4,None,2025-09-11 15h21.16.577422 -0400,
-0.9166666666666664,-15.0,p3,negs,100,51,51,0,right,1.258417625038419,None,None,,,,,,,,,,,0,51,51,555,113.69776633300353,,,,,,,,,,,,,,,,,,,,,,,,,,,,,,113.69123758299975,113.69776633300353,114.18651141697774,114.18651141697774,114.26000399998156,114.26000399998156,114.96302004199242,right,1.258417625038419,None,114.96320095798,114.96327291696798,None,,,,,,,,,,,,nateheller,0,2025-09-11_15h20.59.253,tilt_mocs,2024.2.4,None,2025-09-11 15h21.16.577422 -0400,
-2.9166666666666665,-15.0,m1,negs,100,52,52,0,left,1.0997182499850169,None,None,,,,,,,,,,,0,52,52,383,114.97417645796668,,,,,,,,,,,,,,,,,,,,,,,,,,,,,,114.96616987499874,114.97417645796668,115.46330887498334,115.46330887498334,115.53766962495865,115.53766962495865,116.07934579194989,left,1.0997182499850169,None,116.07949166698381,116.07954649999738,None,,,,,,,,,,,,nateheller,0,2025-09-11_15h20.59.253,tilt_mocs,2024.2.4,None,2025-09-11 15h21.16.577422 -0400,
1.6944444444444444,15.0,PSE,poss,100,53,53,0,left,2.0031782079604454,None,None,,,,,,,,,,,0,53,53,143,116.0900797919603,,,,,,,,,,,,,,,,,,,,,,,,,,,,,,116.08168199995998,116.0900797919603,116.57911479199538,116.57911479199538,116.65518345800228,116.65518345800228,118.09600395796588,left,2.0031782079604454,None,118.09610933298245,118.09615024999948,None,,,,,,,,,,,,nateheller,0,2025-09-11_15h20.59.253,tilt_mocs,2024.2.4,None,2025-09-11 15h21.16.577422 -0400,
-2.4166666666666665,-15.0,PSE,negs,100,54,54,0,right,1.9211386250099167,None,None,,,,,,,,,,,0,54,54,406,118.10658154200064,,,,,,,,,,,,,,,,,,,,,,,,,,,,,,118.09807691699825,118.10658154200064,118.59549716697074,118.59549716697074,118.67114379198756,118.67114379198756,120.03067291696789,right,1.9211386250099167,None,120.03088979196036,120.03096349997213,None,,,,,,,,,,,,nateheller,0,2025-09-11_15h20.59.253,tilt_mocs,2024.2.4,None,2025-09-11 15h21.16.577422 -0400,
1.0277777777777777,0.0,p2,noss,0,55,55,0,right,1.335740334005095,None,None,,,,,,,,,,,0,55,55,676,120.04199779196642,,,,,,,,,,,,,,,,,,,,,,,,,,,,,,120.03399912494933,120.04199779196642,120.52986858296208,120.52986858296208,120.60443674999988,120.60443674999988,121.3906138750026,right,1.335740334005095,None,121.39070874999743,121.39074816700304,None,,,,,,,,,,,,nateheller,0,2025-09-11_15h20.59.253,tilt_mocs,2024.2.4,None,2025-09-11 15h21.16.577422 -0400,
-2.4166666666666665,-15.0,PSE,negs,100,56,56,0,left,1.218337917001918,None,None,,,,,,,,,,,0,56,56,425,121.40445199998794,,,,,,,,,,,,,,,,,,,,,,,,,,,,,,121.39246883295709,121.40445199998794,121.88691387500148,121.88691387500148,121.95963137497893,121.95963137497893,122.6291125419666,left,1.218337917001918,None,122.62924524996197,122.6292997499695,None,,,,,,,,,,,,nateheller,0,2025-09-11_15h20.59.253,tilt_mocs,2024.2.4,None,2025-09-11 15h21.16.577422 -0400,
2.1944444444444446,15.0,p1,poss,100,57,57,0,left,1.29365687497193,None,None,,,,,,,,,,,0,57,57,194,122.64021599997068,,,,,,,,,,,,,,,,,,,,,,,,,,,,,,122.63200958300149,122.64021599997068,123.12919579196023,123.12919579196023,123.20457333297236,123.20457333297236,123.93877408298431,left,1.29365687497193,None,123.93887187499786,123.93891354196239,None,,,,,,,,,,,,nateheller,0,2025-09-11_15h20.59.253,tilt_mocs,2024.2.4,None,2025-09-11 15h21.16.577422 -0400,
0.6944444444444444,15.0,m2,poss,100,58,58,0,left,1.2423604999785312,None,None,,,,,,,,,,,0,58,58,45,123.94656595797278,,,,,,,,,,,,,,,,,,,,,,,,,,,,,,123.94063341699075,123.94656595797278,124.43635054200422,124.43635054200422,124.5077844579937,124.5077844579937,125.20121174998349,left,1.2423604999785312,None,125.20129920798354,125.20136199996341,None,,,,,,,,,,,,nateheller,0,2025-09-11_15h20.59.253,tilt_mocs,2024.2.4,None,2025-09-11 15h21.16.577422 -0400,
1.5277777777777777,0.0,p3,noss,0,59,59,0,right,1.1818023750092834,None,None,,,,,,,,,,,0,59,59,693,125.2069349999656,,,,,,,,,,,,,,,,,,,,,,,,,,,,,,125.2030272919801,125.2069349999656,125.69653312495211,125.69653312495211,125.77111512498232,125.77111512498232,126.39921754196985,right,1.1818023750092834,None,126.39930879196618,126.3993470419664,None,,,,,,,,,,,,nateheller,0,2025-09-11_15h20.59.253,tilt_mocs,2024.2.4,None,2025-09-11 15h21.16.577422 -0400,
0.4722222222222222,0.0,m1,noss,0,60,60,0,right,1.6318220419925638,None,None,,,,,,,,,,,0,60,60,609,126.40675741696032,,,,,,,,,,,,,,,,,,,,,,,,,,,,,,126.40106337500038,126.40675741696032,126.89576937496895,126.89576937496895,126.97121662495192,126.97121662495192,128.05214158300078,right,1.6318220419925638,None,128.05224495800212,128.05228470795555,None,,,,,,,,,,,,nateheller,0,2025-09-11_15h20.59.253,tilt_mocs,2024.2.4,None,2025-09-11 15h21.16.577422 -0400,
0.1944444444444444,15.0,m3,poss,100,61,61,0,left,1.1642647910048254,None,None,,,,,,,,,,,0,61,61,34,128.05952420795802,,,,,,,,,,,,,,,,,,,,,,,,,,,,,,128.05481758300448,128.05952420795802,128.5461659579887,128.5461659579887,128.62125770800048,128.62125770800048,129.22943112498615,left,1.1642647910048254,None,129.22962916694814,129.22969208296854,None,,,,,,,,,,,,nateheller,0,2025-09-11_15h20.59.253,tilt_mocs,2024.2.4,None,2025-09-11 15h21.16.577422 -0400,
-3.9166666666666665,-15.0,m3,negs,100,62,62,0,left,1.415156792034395,None,None,,,,,,,,,,,0,62,62,293,129.240551957977,,,,,,,,,,,,,,,,,,,,,,,,,,,,,,129.23262316698674,129.240551957977,129.7299767920049,129.7299767920049,129.8044541249983,129.8044541249983,130.66282349999528,left,1.415156792034395,None,130.66306841699407,130.6631384579814,None,,,,,,,,,,,,nateheller,0,2025-09-11_15h20.59.253,tilt_mocs,2024.2.4,None,2025-09-11 15h21.16.577422 -0400,
0.9722222222222222,0.0,m2,noss,0,63,63,0,right,1.2367140829446726,None,None,,,,,,,,,,,0,63,63,594,130.6744438749738,,,,,,,,,,,,,,,,,,,,,,,,,,,,,,130.66615720797563,130.6744438749738,131.16330620797817,131.16330620797817,131.23787083296338,131.23787083296338,131.91405891696922,right,1.2367140829446726,None,131.91428008297225,131.9143394169514,None,,,,,,,,,,,,nateheller,0,2025-09-11_15h20.59.253,tilt_mocs,2024.2.4,None,2025-09-11 15h21.16.577422 -0400,
-1.9166666666666663,-15.0,p1,negs,100,64,64,0,right,1.4447277499712072,None,None,,,,,,,,,,,0,64,64,464,131.92404383298708,,,,,,,,,,,,,,,,,,,,,,,,,,,,,,131.91692499996861,131.92404383298708,132.413275333005,132.413275333005,132.4876135419472,132.4876135419472,133.37401437497465,right,1.4447277499712072,None,133.37425095797516,133.3743194579729,None,,,,,,,,,,,,nateheller,0,2025-09-11_15h20.59.253,tilt_mocs,2024.2.4,None,2025-09-11 15h21.16.577422 -0400,
1.1944444444444444,15.0,m1,poss,100,65,65,0,left,1.0243402919732034,None,None,,,,,,,,,,,0,65,65,118,133.38741587498225,,,,,,,,,,,,,,,,,,,,,,,,,,,,,,133.37731149996398,133.38741587498225,133.86971466697287,133.86971466697287,133.9434246669989,133.9434246669989,134.42373833298916,left,1.0243402919732034,None,134.42396975000156,134.42404033296043,None,,,,,,,,,,,,nateheller,0,2025-09-11_15h20.59.253,tilt_mocs,2024.2.4,None,2025-09-11 15h21.16.577422 -0400,
-1.4166666666666663,-15.0,p2,negs,100,66,66,0,right,1.2547593340277672,None,None,,,,,,,,,,,0,66,66,497,134.4351720829727,,,,,,,,,,,,,,,,,,,,,,,,,,,,,,134.42692604195327,134.4351720829727,134.9200911669759,134.9200911669759,134.99145058298018,134.99145058298018,135.6959627919714,right,1.2547593340277672,None,135.69610579195432,135.69616529199993,None,,,,,,,,,,,,nateheller,0,2025-09-11_15h20.59.253,tilt_mocs,2024.2.4,None,2025-09-11 15h21.16.577422 -0400,
-0.9166666666666664,-15.0,p3,negs,100,67,67,0,right,1.2567139160237275,None,None,,,,,,,,,,,0,67,67,526,135.70666624995647,,,,,,,,,,,,,,,,,,,,,,,,,,,,,,135.69872458296595,135.70666624995647,136.196330457984,136.196330457984,136.27552112500416,136.27552112500416,136.97332987497794,right,1.2567139160237275,None,136.97345612494973,136.97350791696226,None,,,,,,,,,,,,nateheller,0,2025-09-11_15h20.59.253,tilt_mocs,2024.2.4,None,2025-09-11 15h21.16.577422 -0400,
1.1944444444444444,15.0,m1,poss,100,68,68,0,left,1.125070334004704,None,None,,,,,,,,,,,0,68,68,113,136.98272599995835,,,,,,,,,,,,,,,,,,,,,,,,,,,,,,136.97551762498915,136.98272599995835,137.46977674996015,137.46977674996015,137.54274274996715,137.54274274996715,138.11222650000127,left,1.125070334004704,None,138.1123588749906,138.11240808299044,None,,,,,,,,,,,,nateheller,0,2025-09-11_15h20.59.253,tilt_mocs,2024.2.4,None,2025-09-11 15h21.16.577422 -0400,
0.4722222222222222,0.0,m1,noss,0,69,69,0,left,1.4985171669977717,None,None,,,,,,,,,,,0,69,69,604,138.12356770795304,,,,,,,,,,,,,,,,,,,,,,,,,,,,,,138.1150147919543,138.12356770795304,138.61325145798037,138.61325145798037,138.6878180829808,138.6878180829808,139.6283847919549,left,1.4985171669977717,None,139.62848633294925,139.628527999972,None,,,,,,,,,,,,nateheller,0,2025-09-11_15h20.59.253,tilt_mocs,2024.2.4,None,2025-09-11 15h21.16.577422 -0400,
-2.4166666666666665,-15.0,PSE,negs,100,70,70,0,right,1.7722049999865703,None,None,,,,,,,,,,,0,70,70,431,139.6541108749807,,,,,,,,,,,,,,,,,,,,,,,,,,,,,,139.63044441695092,139.6541108749807,140.1301398749929,140.1301398749929,140.20449712499976,140.20449712499976,141.42945808300283,right,1.7722049999865703,None,141.42962283297675,141.429689166951,None,,,,,,,,,,,,nateheller,0,2025-09-11_15h20.59.253,tilt_mocs,2024.2.4,None,2025-09-11 15h21.16.577422 -0400,
-3.4166666666666665,-15.0,m2,negs,100,71,71,0,left,1.223387875012122,None,None,,,,,,,,,,,0,71,71,326,141.4409861669992,,,,,,,,,,,,,,,,,,,,,,,,,,,,,,141.43266516696895,141.4409861669992,141.9300896669738,141.9300896669738,142.004455916991,142.004455916991,142.67390341695864,left,1.223387875012122,None,142.6741374579724,142.67421495798044,None,,,,,,,,,,,,nateheller,0,2025-09-11_15h20.59.253,tilt_mocs,2024.2.4,None,2025-09-11 15h21.16.577422 -0400,
2.1944444444444446,15.0,p1,poss,100,72,72,0,left,1.5569410840398632,None,None,,,,,,,,,,,0,72,72,170,142.68760458298493,,,,,,,,,,,,,,,,,,,,,,,,,,,,,,142.67724383296445,142.68760458298493,143.16964395798277,143.16964395798277,143.2432689999696,143.2432689999696,144.24754837498767,left,1.5569410840398632,None,144.2477767499513,144.2478439169936,None,,,,,,,,,,,,nateheller,0,2025-09-11_15h20.59.253,tilt_mocs,2024.2.4,None,2025-09-11 15h21.16.577422 -0400,
0.9722222222222222,0.0,m2,noss,0,73,73,0,right,1.1124321249662898,None,None,,,,,,,,,,,0,73,73,595,144.2597380419611,,,,,,,,,,,,,,,,,,,,,,,,,,,,,,144.25088074995438,144.2597380419611,144.747029457998,144.747029457998,144.8206631669891,144.8206631669891,145.3785669169738,right,1.1124321249662898,None,145.37869016698096,145.37873412499903,None,,,,,,,,,,,,nateheller,0,2025-09-11_15h20.59.253,tilt_mocs,2024.2.4,None,2025-09-11 15h21.16.577422 -0400,
1.4722222222222223,0.0,m3,noss,0,74,74,0,right,1.1555336250457913,None,None,,,,,,,,,,,0,74,74,570,145.39026099996408,,,,,,,,,,,,,,,,,,,,,,,,,,,,,,145.38286599999992,145.39026099996408,145.878845582949,145.878845582949,145.9542117919773,145.9542117919773,146.5570718749659,right,1.1555336250457913,None,146.55729129200336,146.55735341698164,None,,,,,,,,,,,,nateheller,0,2025-09-11_15h20.59.253,tilt_mocs,2024.2.4,None,2025-09-11 15h21.16.577422 -0400,
0.0277777777777777,0.0,PSE,noss,0,75,75,0,left,1.2918013330199756,None,None,,,,,,,,,,,0,75,75,621,146.57031674997415,,,,,,,,,,,,,,,,,,,,,,,,,,,,,,146.56041129195364,146.57031674997415,147.05302083300194,147.05302083300194,147.1269255829975,147.1269255829975,147.8738190829754,left,1.2918013330199756,None,147.87403758295113,147.87410533300135,None,,,,,,,,,,,,nateheller,0,2025-09-11_15h20.59.253,tilt_mocs,2024.2.4,None,2025-09-11 15h21.16.577422 -0400,
0.0277777777777777,0.0,PSE,noss,0,76,76,0,right,1.129223332973197,None,None,,,,,,,,,,,0,76,76,637,147.88697029196192,,,,,,,,,,,,,,,,,,,,,,,,,,,,,,147.87708262499655,147.88697029196192,148.36973562499043,148.36973562499043,148.44224354199832,148.44224354199832,149.02399120799964,right,1.129223332973197,None,149.024202917004,149.02427737496328,None,,,,,,,,,,,,nateheller,0,2025-09-11_15h20.59.253,tilt_mocs,2024.2.4,None,2025-09-11 15h21.16.577422 -0400,
1.1944444444444444,15.0,m1,poss,100,77,77,0,left,1.1277922919834964,None,None,,,,,,,,,,,0,77,77,84,149.03611720795743,,,,,,,,,,,,,,,,,,,,,,,,,,,,,,149.02729474997614,149.03611720795743,149.52014058298664,149.52014058298664,149.5933490829775,149.5933490829775,150.1738122079987,left,1.1277922919834964,None,150.17402129195398,150.17408420797437,None,,,,,,,,,,,,nateheller,0,2025-09-11_15h20.59.253,tilt_mocs,2024.2.4,None,2025-09-11 15h21.16.577422 -0400,
-0.9166666666666664,-15.0,p3,negs,100,78,78,0,right,1.0224377089762129,None,None,,,,,,,,,,,0,78,78,542,150.18477995798457,,,,,,,,,,,,,,,,,,,,,,,,,,,,,,150.1767573329853,150.18477995798457,150.66962912498275,150.66962912498275,150.7429727499839,150.7429727499839,151.21222416695673,right,1.0224377089762129,None,151.21235549997073,151.21240587497596,None,,,,,,,,,,,,nateheller,0,2025-09-11_15h20.59.253,tilt_mocs,2024.2.4,None,2025-09-11 15h21.16.577422 -0400,
-3.4166666666666665,-15.0,m2,negs,100,79,79,0,left,1.2404805000405759,None,None,,,,,,,,,,,0,79,79,344,151.22286487498786,,,,,,,,,,,,,,,,,,,,,,,,,,,,,,151.2144949999638,151.22286487498786,151.71290774998488,151.71290774998488,151.78771604195936,151.78771604195936,152.4742679579649,left,1.2404805000405759,None,152.47447683295468,152.47454204194946,None,,,,,,,,,,,,nateheller,0,2025-09-11_15h20.59.253,tilt_mocs,2024.2.4,None,2025-09-11 15h21.16.577422 -0400,
-2.9166666666666665,-15.0,m1,negs,100,80,80,0,left,1.2049284999957308,None,None,,,,,,,,,,,0,80,80,373,152.48564799997257,,,,,,,,,,,,,,,,,,,,,,,,,,,,,,152.4773632499855,152.48564799997257,152.96996074996423,152.96996074996423,153.04286095796851,153.04286095796851,153.69610929198097,left,1.2049284999957308,None,153.69627566699637,153.69634091696935,None,,,,,,,,,,,,nateheller,0,2025-09-11_15h20.59.253,tilt_mocs,2024.2.4,None,2025-09-11 15h21.16.577422 -0400,
-0.9166666666666664,-15.0,p3,negs,100,81,81,0,right,1.0747838329989463,None,None,,,,,,,,,,,0,81,81,528,153.70694241696037,,,,,,,,,,,,,,,,,,,,,,,,,,,,,,153.69908974994905,153.70694241696037,154.19576224999037,154.19576224999037,154.27127270796336,154.27127270796336,154.79051612498006,right,1.0747838329989463,None,154.79072945797816,154.790794624947,None,,,,,,,,,,,,nateheller,0,2025-09-11_15h20.59.253,tilt_mocs,2024.2.4,None,2025-09-11 15h21.16.577422 -0400,
2.1944444444444446,15.0,p1,poss,100,82,82,0,right,1.1161391669884324,None,None,,,,,,,,,,,0,82,82,187,154.80218762496952,,,,,,,,,,,,,,,,,,,,,,,,,,,,,,154.7937313329894,154.80218762496952,155.28632974997163,155.28632974997163,155.3605637080036,155.3605637080036,155.9239945829613,right,1.1161391669884324,None,155.92419733299175,155.92427149997093,None,,,,,,,,,,,,nateheller,0,2025-09-11_15h20.59.253,tilt_mocs,2024.2.4,None,2025-09-11 15h21.16.577422 -0400,
1.1944444444444444,15.0,m1,poss,100,83,83,0,left,0.9765402500052005,None,None,,,,,,,,,,,0,83,83,119,155.9372492079856,,,,,,,,,,,,,,,,,,,,,,,,,,,,,,155.92732362495735,155.9372492079856,156.41959437495098,156.41959437495098,156.49060804198962,156.49060804198962,156.92346787499264,left,0.9765402500052005,None,156.92367370799184,156.92373537499225,None,,,,,,,,,,,,nateheller,0,2025-09-11_15h20.59.253,tilt_mocs,2024.2.4,None,2025-09-11 15h21.16.577422 -0400,
0.6944444444444444,15.0,m2,poss,100,84,84,0,right,1.014324999996461,None,None,,,,,,,,,,,0,84,84,58,156.9336735419929,,,,,,,,,,,,,,,,,,,,,,,,,,,,,,156.92617974994937,156.9336735419929,157.41964637499768,157.41964637499768,157.4919084580033,157.4919084580033,157.95698779198574,right,1.014324999996461,None,157.95719583297614,157.95726829196792,None,,,,,,,,,,,,nateheller,0,2025-09-11_15h20.59.253,tilt_mocs,2024.2.4,None,2025-09-11 15h21.16.577422 -0400,
-1.4166666666666663,-15.0,p2,negs,100,85,85,0,right,1.0294211250147782,None,None,,,,,,,,,,,0,85,85,512,157.9694915,,,,,,,,,,,,,,,,,,,,,,,,,,,,,,157.96025079197716,157.9694915,158.45304024999496,158.45304024999496,158.52926804195158,158.52926804195158,159.00687166699208,right,1.0294211250147782,None,159.00704595795833,159.0071062920033,None,,,,,,,,,,,,nateheller,0,2025-09-11_15h20.59.253,tilt_mocs,2024.2.4,None,2025-09-11 15h21.16.577422 -0400,
-3.4166666666666665,-15.0,m2,negs,100,86,86,0,left,1.2381214590277523,None,None,,,,,,,,,,,0,86,86,347,159.0170838329941,,,,,,,,,,,,,,,,,,,,,,,,,,,,,,159.00969166698633,159.0170838329941,159.50305520795519,159.50305520795519,159.57638649997534,159.57638649997534,160.2693332079798,left,1.2381214590277523,None,160.26947483298136,160.2695252079866,None,,,,,,,,,,,,nateheller,0,2025-09-11_15h20.59.253,tilt_mocs,2024.2.4,None,2025-09-11 15h21.16.577422 -0400,
0.0277777777777777,0.0,PSE,noss,0,87,87,0,right,1.5870139590115286,None,None,,,,,,,,,,,0,87,87,632,160.27715504198568,,,,,,,,,,,,,,,,,,,,,,,,,,,,,,160.27229166700272,160.27715504198568,160.7634979999857,160.7634979999857,160.83770745794754,160.83770745794754,161.87385720800376,right,1.5870139590115286,None,161.8740807499853,161.87414829200134,None,,,,,,,,,,,,nateheller,0,2025-09-11_15h20.59.253,tilt_mocs,2024.2.4,None,2025-09-11 15h21.16.577422 -0400,
-3.4166666666666665,-15.0,m2,negs,100,88,88,0,left,1.3266512080444954,None,None,,,,,,,,,,,0,88,88,342,161.88687029195717,,,,,,,,,,,,,,,,,,,,,,,,,,,,,,161.87711041700095,161.88687029195717,162.3696722079767,162.3696722079767,162.44320300000254,162.44320300000254,163.22378070798004,left,1.3266512080444954,None,163.22401658300078,163.22408416698454,None,,,,,,,,,,,,nateheller,0,2025-09-11_15h20.59.253,tilt_mocs,2024.2.4,None,2025-09-11 15h21.16.577422 -0400,
-0.9166666666666664,-15.0,p3,negs,100,89,89,0,right,1.0763227920397185,None,None,,,,,,,,,,,0,89,89,556,163.23561149998568,,,,,,,,,,,,,,,,,,,,,,,,,,,,,,163.2270776249934,163.23561149998568,163.71969920798438,163.71969920798438,163.7927699579741,163.7927699579741,164.32375204196433,right,1.0763227920397185,None,164.32396591699217,164.32403624994913,None,,,,,,,,,,,,nateheller,0,2025-09-11_15h20.59.253,tilt_mocs,2024.2.4,None,2025-09-11 15h21.16.577422 -0400,
-2.4166666666666665,-15.0,PSE,negs,100,90,90,0,right,1.2599077919730917,None,None,,,,,,,,,,,0,90,90,416,164.33695533295395,,,,,,,,,,,,,,,,,,,,,,,,,,,,,,164.32711612497224,164.33695533295395,164.81983104196843,164.81983104196843,164.8930770829902,164.8930770829902,165.6069265419501,right,1.2599077919730917,None,165.60708012495888,165.60713474999648,None,,,,,,,,,,,,nateheller,0,2025-09-11_15h20.59.253,tilt_mocs,2024.2.4,None,2025-09-11 15h21.16.577422 -0400,
1.5277777777777777,0.0,p3,noss,0,91,91,0,right,1.1224270419916138,None,None,,,,,,,,,,,0,91,91,680,165.61670537496684,,,,,,,,,,,,,,,,,,,,,,,,,,,,,,165.6092889579595,165.61670537496684,166.1032883329899,166.1032883329899,166.17696795798838,166.17696795798838,166.74571079196176,right,1.1224270419916138,None,166.7458519579959,166.74590620800154,None,,,,,,,,,,,,nateheller,0,2025-09-11_15h20.59.253,tilt_mocs,2024.2.4,None,2025-09-11 15h21.16.577422 -0400,
-1.9166666666666663,-15.0,p1,negs,100,92,92,0,right,1.1516397920204327,None,None,,,,,,,,,,,0,92,92,460,166.75666279200232,,,,,,,,,,,,,,,,,,,,,,,,,,,,,,166.74851154198404,166.75666279200232,167.2459237499861,167.2459237499861,167.32062283298,167.32062283298,167.91227979195537,right,1.1516397920204327,None,167.91241295798682,167.9124714579666,None,,,,,,,,,,,,nateheller,0,2025-09-11_15h20.59.253,tilt_mocs,2024.2.4,None,2025-09-11 15h21.16.577422 -0400,
0.0277777777777777,0.0,PSE,noss,0,93,93,0,left,1.2440986250294372,None,None,,,,,,,,,,,0,93,93,622,167.92343962495215,,,,,,,,,,,,,,,,,,,,,,,,,,,,,,167.9151387079619,167.92343962495215,168.41209745797096,168.41209745797096,168.48767358297482,168.48767358297482,169.17389358294895,left,1.2440986250294372,None,169.1741560829687,169.17422758298926,None,,,,,,,,,,,,nateheller,0,2025-09-11_15h20.59.253,tilt_mocs,2024.2.4,None,2025-09-11 15h21.16.577422 -0400,
-1.9166666666666663,-15.0,p1,negs,100,94,94,0,right,1.4614911670214497,None,None,,,,,,,,,,,0,94,94,441,169.18710666697007,,,,,,,,,,,,,,,,,,,,,,,,,,,,,,169.177224791958,169.18710666697007,169.669591999962,169.669591999962,169.74343062494881,169.74343062494881,170.65671304200077,right,1.4614911670214497,None,170.65691183297895,170.65697079198435,None,,,,,,,,,,,,nateheller,0,2025-09-11_15h20.59.253,tilt_mocs,2024.2.4,None,2025-09-11 15h21.16.577422 -0400,
-2.4166666666666665,-15.0,PSE,negs,100,95,95,0,right,1.6808293749927543,None,None,,,,,,,,,,,0,95,95,412,170.66733995795948,,,,,,,,,,,,,,,,,,,,,,,,,,,,,,170.65974179195473,170.66733995795948,171.153994332999,171.153994332999,171.2248053329531,171.2248053329531,172.35568162496202,right,1.6808293749927543,None,172.35577608295716,172.35582529200474,None,,,,,,,,,,,,nateheller,0,2025-09-11_15h20.59.253,tilt_mocs,2024.2.4,None,2025-09-11 15h21.16.577422 -0400,
2.1944444444444446,15.0,p1,poss,100,96,96,0,right,1.1237491249921732,None,None,,,,,,,,,,,0,96,96,164,172.36461349995807,,,,,,,,,,,,,,,,,,,,,,,,,,,,,,172.3576008329983,172.36461349995807,172.85413729195716,172.85413729195716,172.92483649996575,172.92483649996575,173.49430237495108,right,1.1237491249921732,None,173.49443433299894,173.49448462500004,None,,,,,,,,,,,,nateheller,0,2025-09-11_15h20.59.253,tilt_mocs,2024.2.4,None,2025-09-11 15h21.16.577422 -0400,
-0.9166666666666664,-15.0,p3,negs,100,97,97,0,right,1.0916808329639025,None,None,,,,,,,,,,,0,97,97,525,173.50335116696078,,,,,,,,,,,,,,,,,,,,,,,,,,,,,,173.4966166249942,173.50335116696078,173.99423766694963,173.99423766694963,174.06988891697256,174.06988891697256,174.60691724997014,right,1.0916808329639025,None,174.60709533299087,174.6071551249479,None,,,,,,,,,,,,nateheller,0,2025-09-11_15h20.59.253,tilt_mocs,2024.2.4,None,2025-09-11 15h21.16.577422 -0400,
-0.9166666666666664,-15.0,p3,negs,100,98,98,0,right,1.0831382499891333,None,None,,,,,,,,,,,0,98,98,557,174.61692091700388,,,,,,,,,,,,,,,,,,,,,,,,,,,,,,174.60941262496635,174.61692091700388,175.10303008300252,175.10303008300252,175.17655529198237,175.17655529198237,175.70765524997842,right,1.0831382499891333,None,175.7078474999871,175.7079132499639,None,,,,,,,,,,,,nateheller,0,2025-09-11_15h20.59.253,tilt_mocs,2024.2.4,None,2025-09-11 15h21.16.577422 -0400,
0.1944444444444444,15.0,m3,poss,100,99,99,0,left,1.291408416989725,None,None,,,,,,,,,,,0,99,99,3,175.72097108297748,,,,,,,,,,,,,,,,,,,,,,,,,,,,,,175.71067779196892,175.72097108297748,176.2035694999504,176.2035694999504,176.27648487495026,176.27648487495026,177.02228858298622,left,1.291408416989725,None,177.0223746249685,177.0224133330048,None,,,,,,,,,,,,nateheller,0,2025-09-11_15h20.59.253,tilt_mocs,2024.2.4,None,2025-09-11 15h21.16.577422 -0400,
-1.4166666666666663,-15.0,p2,negs,100,100,100,0,right,1.0848601250327192,None,space,7.993694707984105,None,,,,,,,,,0,100,100,495,177.0315740419901,,,,,,,,,,,,,,,,,,,,,,,,,,,,,,177.02447395795025,177.0315740419901,177.51986429200042,177.51986429200042,177.5923366670031,177.5923366670031,178.1238519169856,right,1.0848601250327192,None,178.12403608299792,186.1398984999978,space,178.13744074996794,178.13744074996794,7.993694707984105,None,,,,,,,,nateheller,0,2025-09-11_15h20.59.253,tilt_mocs,2024.2.4,None,2025-09-11 15h21.16.577422 -0400,
1.0277777777777777,0.0,p2,noss,0,101,101,0,right,1.0909421250107698,None,None,,,,,,,,,,,0,101,101,678,186.15154070797144,,,,,,,,,,,,,,,,,,,,,,,,,,,,,,186.14189479197375,186.15154070797144,186.63676487497287,186.63676487497287,186.70971845794702,186.70971845794702,187.24540312495083,right,1.0909421250107698,None,187.24550529196858,187.24554487498244,None,,,,,,,,,,,,nateheller,0,2025-09-11_15h20.59.253,tilt_mocs,2024.2.4,None,2025-09-11 15h21.16.577422 -0400,
0.1944444444444444,15.0,m3,poss,100,102,102,0,left,1.0016330830403604,None,None,,,,,,,,,,,0,102,102,29,187.27067320799688,,,,,,,,,,,,,,,,,,,,,,,,,,,,,,187.24732058297377,187.27067320799688,187.74570804199902,187.74570804199902,187.82107004197314,187.82107004197314,188.27870066696778,left,1.0016330830403604,None,188.2788351670024,188.278879666992,None,,,,,,,,,,,,nateheller,0,2025-09-11_15h20.59.253,tilt_mocs,2024.2.4,None,2025-09-11 15h21.16.577422 -0400,
2.6944444444444446,15.0,p2,poss,100,103,103,0,right,1.0598757090047002,None,None,,,,,,,,,,,0,103,103,231,188.28984429198317,,,,,,,,,,,,,,,,,,,,,,,,,,,,,,188.2812396249501,188.28984429198317,188.77917349996278,188.77917349996278,188.85424074996263,188.85424074996263,189.35586349997902,right,1.0598757090047002,None,189.3559787919512,189.35602583299624,None,,,,,,,,,,,,nateheller,0,2025-09-11_15h20.59.253,tilt_mocs,2024.2.4,None,2025-09-11 15h21.16.577422 -0400,
-2.4166666666666665,-15.0,PSE,negs,100,104,104,0,right,1.5914605419966392,None,None,,,,,,,,,,,0,104,104,408,189.36472833296284,,,,,,,,,,,,,,,,,,,,,,,,,,,,,,189.3582949169795,189.36472833296284,189.85293379198993,189.85293379198993,189.9252134169801,189.9252134169801,190.96297266695183,right,1.5914605419966392,None,190.9631489579915,190.96321070799604,None,,,,,,,,,,,,nateheller,0,2025-09-11_15h20.59.253,tilt_mocs,2024.2.4,None,2025-09-11 15h21.16.577422 -0400,
-3.9166666666666665,-15.0,m3,negs,100,105,105,0,left,1.1579776250291616,None,None,,,,,,,,,,,0,105,105,297,190.97441295796307,,,,,,,,,,,,,,,,,,,,,,,,,,,,,,190.96608962496975,190.97441295796307,191.46220133296447,191.46220133296447,191.53737691696733,191.53737691696733,192.14039849996334,left,1.1579776250291616,None,192.14062012499198,192.14068145799683,None,,,,,,,,,,,,nateheller,0,2025-09-11_15h20.59.253,tilt_mocs,2024.2.4,None,2025-09-11 15h21.16.577422 -0400,
-0.9166666666666664,-15.0,p3,negs,100,106,106,0,right,1.0089904160122387,None,None,,,,,,,,,,,0,106,106,521,192.15176808298565,,,,,,,,,,,,,,,,,,,,,,,,,,,,,,192.14343141700374,192.15176808298565,192.63734237500466,192.63734237500466,192.70972887496464,192.70972887496464,193.1888344999752,right,1.0089904160122387,None,193.18893287499668,193.18897341698175,None,,,,,,,,,,,,nateheller,0,2025-09-11_15h20.59.253,tilt_mocs,2024.2.4,None,2025-09-11 15h21.16.577422 -0400,
-3.9166666666666665,-15.0,m3,negs,100,107,107,0,left,1.0849462079931982,None,None,,,,,,,,,,,0,107,107,309,193.2036401249934,,,,,,,,,,,,,,,,,,,,,,,,,,,,,,193.1910698749707,193.2036401249934,193.6863217499922,193.6863217499922,193.75855749996845,193.75855749996845,194.2938317079679,left,1.0849462079931982,None,194.29396220797207,194.29401416698238,None,,,,,,,,,,,,nateheller,0,2025-09-11_15h20.59.253,tilt_mocs,2024.2.4,None,2025-09-11 15h21.16.577422 -0400,
1.6944444444444444,15.0,PSE,poss,100,108,108,0,right,1.0140650420216843,None,None,,,,,,,,,,,0,108,108,124,194.30348566698376,,,,,,,,,,,,,,,,,,,,,,,,,,,,,,194.29614429199137,194.30348566698376,194.78700241696788,194.78700241696788,194.86006379197352,194.86006379197352,195.3232357079978,right,1.0140650420216843,None,195.32342633296503,195.3234866669518,None,,,,,,,,,,,,nateheller,0,2025-09-11_15h20.59.253,tilt_mocs,2024.2.4,None,2025-09-11 15h21.16.577422 -0400,
0.5277777777777778,0.0,p1,noss,0,109,109,0,right,1.1545904580270872,None,None,,,,,,,,,,,0,109,109,641,195.33335666696075,,,,,,,,,,,,,,,,,,,,,,,,,,,,,,195.32591954199597,195.33335666696075,195.82071304199053,195.82071304199053,195.89070358296158,195.89070358296158,196.4930900829495,right,1.1545904580270872,None,196.49319437495433,196.49323670798913,None,,,,,,,,,,,,nateheller,0,2025-09-11_15h20.59.253,tilt_mocs,2024.2.4,None,2025-09-11 15h21.16.577422 -0400,
3.1944444444444446,15.0,p3,poss,100,110,110,0,right,1.1583307919790968,None,None,,,,,,,,,,,0,110,110,249,196.5030215419829,,,,,,,,,,,,,,,,,,,,,,,,,,,,,,196.4952233749791,196.5030215419829,196.98735416698037,196.98735416698037,197.05997220799327,197.05997220799327,197.6737366669695,right,1.1583307919790968,None,197.67394354200223,197.6740163329523,None,,,,,,,,,,,,nateheller,0,2025-09-11_15h20.59.253,tilt_mocs,2024.2.4,None,2025-09-11 15h21.16.577422 -0400,
2.6944444444444446,15.0,p2,poss,100,111,111,0,right,1.7591974590322934,None,None,,,,,,,,,,,0,111,111,234,197.68499479198363,,,,,,,,,,,,,,,,,,,,,,,,,,,,,,197.6767754169996,197.68499479198363,198.17023904196685,198.17023904196685,198.24322116695112,198.24322116695112,199.44712662498932,right,1.7591974590322934,None,199.44734487496316,199.44741208298365,None,,,,,,,,,,,,nateheller,0,2025-09-11_15h20.59.253,tilt_mocs,2024.2.4,None,2025-09-11 15h21.16.577422 -0400,
-1.9166666666666663,-15.0,p1,negs,100,112,112,0,right,1.0202754160272889,None,None,,,,,,,,,,,0,112,112,478,199.45851691695862,,,,,,,,,,,,,,,,,,,,,,,,,,,,,,199.4504219169612,199.45851691695862,199.94695549999597,199.94695549999597,200.0208787919837,200.0208787919837,200.49032745795557,right,1.0202754160272889,None,200.49052499997197,200.4905801669811,None,,,,,,,,,,,,nateheller,0,2025-09-11_15h20.59.253,tilt_mocs,2024.2.4,None,2025-09-11 15h21.16.577422 -0400,
1.1944444444444444,15.0,m1,poss,100,113,113,0,left,1.0708986250101589,None,None,,,,,,,,,,,0,113,113,83,200.50136974995257,,,,,,,,,,,,,,,,,,,,,,,,,,,,,,200.49397587496787,200.50136974995257,200.98618054197868,200.98618054197868,201.05932120798388,201.05932120798388,201.57902229198953,left,1.0708986250101589,None,201.57918245799374,201.5792495829519,None,,,,,,,,,,,,nateheller,0,2025-09-11_15h20.59.253,tilt_mocs,2024.2.4,None,2025-09-11 15h21.16.577422 -0400,
-1.4166666666666663,-15.0,p2,negs,100,114,114,0,right,0.986179166007787,None,None,,,,,,,,,,,0,114,114,493,201.59015629196074,,,,,,,,,,,,,,,,,,,,,,,,,,,,,,201.58214162499644,201.59015629196074,202.07870791695314,202.07870791695314,202.15442595799686,202.15442595799686,202.57951920799678,right,0.986179166007787,None,202.57971583295148,202.57977424998535,None,,,,,,,,,,,,nateheller,0,2025-09-11_15h20.59.253,tilt_mocs,2024.2.4,None,2025-09-11 15h21.16.577422 -0400,
-3.9166666666666665,-15.0,m3,negs,100,115,115,0,left,1.0980451250215992,None,None,,,,,,,,,,,0,115,115,307,202.59000383300008,,,,,,,,,,,,,,,,,,,,,,,,,,,,,,202.58231704198988,202.59000383300008,203.0790638329927,203.0790638329927,203.1541102079791,203.1541102079791,203.69154879194684,left,1.0980451250215992,None,203.6917602919857,203.69182483298937,None,,,,,,,,,,,,nateheller,0,2025-09-11_15h20.59.253,tilt_mocs,2024.2.4,None,2025-09-11 15h21.16.577422 -0400,
2.6944444444444446,15.0,p2,poss,100,116,116,0,left,1.4531191249843687,None,None,,,,,,,,,,,0,116,116,238,203.70265395799652,,,,,,,,,,,,,,,,,,,,,,,,,,,,,,203.69496770796832,203.70265395799652,204.18767312495038,204.18767312495038,204.25990941695636,204.25990941695636,205.16257641697302,left,1.4531191249843687,None,205.16275379195577,205.1628262079903,None,,,,,,,,,,,,nateheller,0,2025-09-11_15h20.59.253,tilt_mocs,2024.2.4,None,2025-09-11 15h21.16.577422 -0400,
0.9722222222222222,0.0,m2,noss,0,117,117,0,right,0.992313583032228,None,None,,,,,,,,,,,0,117,117,582,205.17343095794786,,,,,,,,,,,,,,,,,,,,,,,,,,,,,,205.1656910829479,205.17343095794786,205.66278929199325,205.66278929199325,205.7374923749594,205.7374923749594,206.17322991695255,right,0.992313583032228,None,206.17335020797327,206.17339970800094,None,,,,,,,,,,,,nateheller,0,2025-09-11_15h20.59.253,tilt_mocs,2024.2.4,None,2025-09-11 15h21.16.577422 -0400,
2.1944444444444446,15.0,p1,poss,100,118,118,0,right,1.1963992910459638,None,None,,,,,,,,,,,0,118,118,169,206.18257891695248,,,,,,,,,,,,,,,,,,,,,,,,,,,,,,206.17532433295855,206.18257891695248,206.67009908298496,206.67009908298496,206.7433115419699,206.7433115419699,207.3902124169981,right,1.1963992910459638,None,207.3904152920004,207.39047441695584,None,,,,,,,,,,,,nateheller,0,2025-09-11_15h20.59.253,tilt_mocs,2024.2.4,None,2025-09-11 15h21.16.577422 -0400,
0.5277777777777778,0.0,p1,noss,0,119,119,0,right,0.9938655420555733,None,None,,,,,,,,,,,0,119,119,652,207.40086495794822,,,,,,,,,,,,,,,,,,,,,,,,,,,,,,207.3933906669845,207.40086495794822,207.88618737499928,207.88618737499928,207.95952358294744,207.95952358294744,208.40733183297561,right,0.9938655420555733,None,208.40753499994753,208.40759745799005,None,,,,,,,,,,,,nateheller,0,2025-09-11_15h20.59.253,tilt_mocs,2024.2.4,None,2025-09-11 15h21.16.577422 -0400,
1.1944444444444444,15.0,m1,poss,100,120,120,0,left,1.0815572920255363,None,None,,,,,,,,,,,0,120,120,111,208.42060545796994,,,,,,,,,,,,,,,,,,,,,,,,,,,,,,208.4105642499635,208.42060545796994,208.90313087496907,208.90313087496907,208.9762848749524,208.9762848749524,209.50686216697795,left,1.0815572920255363,None,209.50706066697603,209.50713304197416,None,,,,,,,,,,,,nateheller,0,2025-09-11_15h20.59.253,tilt_mocs,2024.2.4,None,2025-09-11 15h21.16.577422 -0400,
-3.4166666666666665,-15.0,m2,negs,100,121,121,0,left,1.284440208983142,None,None,,,,,,,,,,,0,121,121,333,209.52050766698085,,,,,,,,,,,,,,,,,,,,,,,,,,,,,,209.51010783296078,209.52050766698085,210.0027742079692,210.0027742079692,210.07625541696325,210.07625541696325,210.80877608299488,left,1.284440208983142,None,210.80898370797513,210.80905370798428,None,,,,,,,,,,,,nateheller,0,2025-09-11_15h20.59.253,tilt_mocs,2024.2.4,None,2025-09-11 15h21.16.577422 -0400,
-2.4166666666666665,-15.0,PSE,negs,100,122,122,0,right,1.0440704170032404,None,None,,,,,,,,,,,0,122,122,420,210.82132541696774,,,,,,,,,,,,,,,,,,,,,,,,,,,,,,210.81192854198162,210.82132541696774,211.30316858296283,211.30316858296283,211.37640616699355,211.37640616699355,211.87186941696564,right,1.0440704170032404,None,211.8719184579677,211.87193933298113,None,,,,,,,,,,,,nateheller,0,2025-09-11_15h20.59.253,tilt_mocs,2024.2.4,None,2025-09-11 15h21.16.577422 -0400,
2.6944444444444446,15.0,p2,poss,100,123,123,0,left,1.161398124997504,None,None,,,,,,,,,,,0,123,123,225,211.8784124579979,,,,,,,,,,,,,,,,,,,,,,,,,,,,,,211.8728343329858,211.8784124579979,212.3695749999606,212.3695749999606,212.4435606249608,212.4435606249608,213.04537158296444,left,1.161398124997504,None,213.0455100419931,213.04556266695727,None,,,,,,,,,,,,nateheller,0,2025-09-11_15h20.59.253,tilt_mocs,2024.2.4,None,2025-09-11 15h21.16.577422 -0400,
0.6944444444444444,15.0,m2,poss,100,124,124,0,left,0.9985291250050068,None,None,,,,,,,,,,,0,124,124,47,213.05622262496036,,,,,,,,,,,,,,,,,,,,,,,,,,,,,,213.0480481669656,213.05622262496036,213.54338445799658,213.54338445799658,213.62032674998045,213.62032674998045,214.058261707949,left,0.9985291250050068,None,214.05848404194694,214.05854995799018,None,,,,,,,,,,,,nateheller,0,2025-09-11_15h20.59.253,tilt_mocs,2024.2.4,None,2025-09-11 15h21.16.577422 -0400,
0.5277777777777778,0.0,p1,noss,0,125,125,0,right,0.9591540829860605,None,None,,,,,,,,,,,0,125,125,657,214.06964129197877,,,,,,,,,,,,,,,,,,,,,,,,,,,,,,214.06140658300137,214.06964129197877,214.55285045795608,214.55285045795608,214.6266793749528,214.6266793749528,215.0406536249793,right,0.9591540829860605,None,215.04087912495015,215.0409430830041,None,,,,,,,,,,,,nateheller,0,2025-09-11_15h20.59.253,tilt_mocs,2024.2.4,None,2025-09-11 15h21.16.577422 -0400,
1.6944444444444444,15.0,PSE,poss,100,126,126,0,left,1.075662791961804,None,None,,,,,,,,,,,0,126,126,133,215.05368570797145,,,,,,,,,,,,,,,,,,,,,,,,,,,,,,215.04386154195527,215.05368570797145,215.53616729198257,215.53616729198257,215.60977824998554,215.60977824998554,216.14054145797854,left,1.075662791961804,None,216.1407118329662,216.1408129169722,None,,,,,,,,,,,,nateheller,0,2025-09-11_15h20.59.253,tilt_mocs,2024.2.4,None,2025-09-11 15h21.16.577422 -0400,
0.4722222222222222,0.0,m1,noss,0,127,127,0,right,1.3426495000021532,None,None,,,,,,,,,,,0,127,127,602,216.15068429196253,,,,,,,,,,,,,,,,,,,,,,,,,,,,,,216.14347962499596,216.15068429196253,216.63618941698223,216.63618941698223,216.7097418749472,216.7097418749472,217.496056999953,right,1.3426495000021532,None,217.49621345795458,217.49627529195277,None,,,,,,,,,,,,nateheller,0,2025-09-11_15h20.59.253,tilt_mocs,2024.2.4,None,2025-09-11 15h21.16.577422 -0400,
3.1944444444444446,15.0,p3,poss,100,128,128,0,right,1.3781862910254858,None,None,,,,,,,,,,,0,128,128,279,217.506751082954,,,,,,,,,,,,,,,,,,,,,,,,,,,,,,217.49874591699336,217.506751082954,217.9932874579681,217.9932874579681,218.06952908297535,218.06952908297535,218.89011749997735,right,1.3781862910254858,None,218.89031558297575,218.89037487498717,None,,,,,,,,,,,,nateheller,0,2025-09-11_15h20.59.253,tilt_mocs,2024.2.4,None,2025-09-11 15h21.16.577422 -0400,
1.4722222222222223,0.0,m3,noss,0,129,129,0,right,0.9990297080366872,None,None,,,,,,,,,,,0,129,129,571,218.90107216697652,,,,,,,,,,,,,,,,,,,,,,,,,,,,,,218.89350508298958,218.90107216697652,219.38673537498107,219.38673537498107,219.45949408295564,219.45949408295564,219.9070200419519,right,0.9990297080366872,None,219.90721533296164,219.90728879196104,None,,,,,,,,,,,,nateheller,0,2025-09-11_15h20.59.253,tilt_mocs,2024.2.4,None,2025-09-11 15h21.16.577422 -0400,
0.6944444444444444,15.0,m2,poss,100,130,130,0,left,1.0582937080180272,None,None,,,,,,,,,,,0,130,130,49,219.91862858296372,,,,,,,,,,,,,,,,,,,,,,,,,,,,,,219.9101297079469,219.91862858296372,220.4032615829492,220.4032615829492,220.476261416974,220.476261416974,220.9798077919986,left,1.0582937080180272,None,220.98000170796877,220.98007166699972,None,,,,,,,,,,,,nateheller,0,2025-09-11_15h20.59.253,tilt_mocs,2024.2.4,None,2025-09-11 15h21.16.577422 -0400,
0.4722222222222222,0.0,m1,noss,0,131,131,0,right,1.0427471249713562,None,None,,,,,,,,,,,0,131,131,613,220.99121733295033,,,,,,,,,,,,,,,,,,,,,,,,,,,,,,220.98297020798782,220.99121733295033,221.47893970797304,221.47893970797304,221.55444899998838,221.55444899998838,222.04033537500072,right,1.0427471249713562,None,222.04055616696132,222.04062324995175,None,,,,,,,,,,,,nateheller,0,2025-09-11_15h20.59.253,tilt_mocs,2024.2.4,None,2025-09-11 15h21.16.577422 -0400,
-1.9166666666666663,-15.0,p1,negs,100,132,132,0,right,1.1857224999694154,None,None,,,,,,,,,,,0,132,132,473,222.05254316696664,,,,,,,,,,,,,,,,,,,,,,,,,,,,,,222.04354574996978,222.05254316696664,222.53625716699753,222.53625716699753,222.6081692079897,222.6081692079897,223.25103383295937,right,1.1857224999694154,None,223.25115270796232,223.25119337497745,None,,,,,,,,,,,,nateheller,0,2025-09-11_15h20.59.253,tilt_mocs,2024.2.4,None,2025-09-11 15h21.16.577422 -0400,
1.1944444444444444,15.0,m1,poss,100,133,133,0,right,1.070712957996875,None,None,,,,,,,,,,,0,133,133,104,223.25713591696694,,,,,,,,,,,,,,,,,,,,,,,,,,,,,,223.2531592079904,223.25713591696694,223.74564191699028,223.74564191699028,223.8205647499999,223.8205647499999,224.34057912498247,right,1.070712957996875,None,224.34067008295096,224.34070841700304,None,,,,,,,,,,,,nateheller,0,2025-09-11_15h20.59.253,tilt_mocs,2024.2.4,None,2025-09-11 15h21.16.577422 -0400,
1.5277777777777777,0.0,p3,noss,0,134,134,0,right,1.1141582079580985,None,None,,,,,,,,,,,0,134,134,699,224.35410629195394,,,,,,,,,,,,,,,,,,,,,,,,,,,,,,224.3423770829686,224.35410629195394,224.8361262079561,224.8361262079561,224.90992545796325,224.90992545796325,225.473295957956,right,1.1141582079580985,None,225.47349924995797,225.47356645797845,None,,,,,,,,,,,,nateheller,0,2025-09-11_15h20.59.253,tilt_mocs,2024.2.4,None,2025-09-11 15h21.16.577422 -0400,
0.9722222222222222,0.0,m2,noss,0,135,135,0,right,1.0478077080333605,None,None,,,,,,,,,,,0,135,135,593,225.485283374961,,,,,,,,,,,,,,,,,,,,,,,,,,,,,,225.47633841697825,225.485283374961,225.9697149169515,225.9697149169515,226.0431361249648,226.0431361249648,226.5395804999862,right,1.0478077080333605,None,226.53971908299718,226.53977070795372,None,,,,,,,,,,,,nateheller,0,2025-09-11_15h20.59.253,tilt_mocs,2024.2.4,None,2025-09-11 15h21.16.577422 -0400,
-3.4166666666666665,-15.0,m2,negs,100,136,136,0,left,1.1732743750326335,None,None,,,,,,,,,,,0,136,136,356,226.54930366697954,,,,,,,,,,,,,,,,,,,,,,,,,,,,,,226.5418688749778,226.54930366697954,227.03647554200143,227.03647554200143,227.10883945797104,227.10883945797104,227.72952416696353,left,1.1732743750326335,None,227.72970054199686,227.72977554198587,None,,,,,,,,,,,,nateheller,0,2025-09-11_15h20.59.253,tilt_mocs,2024.2.4,None,2025-09-11 15h21.16.577422 -0400,
-0.9166666666666664,-15.0,p3,negs,100,137,137,0,right,0.980691459029913,None,None,,,,,,,,,,,0,137,137,538,227.74105583300116,,,,,,,,,,,,,,,,,,,,,,,,,,,,,,227.73272541695042,227.74105583300116,228.22962033300428,228.22962033300428,228.30423058295855,228.30423058295855,228.7351174170035,right,0.980691459029913,None,228.735237166984,228.735287916963,None,,,,,,,,,,,,nateheller,0,2025-09-11_15h20.59.253,tilt_mocs,2024.2.4,None,2025-09-11 15h21.16.577422 -0400,
2.6944444444444446,15.0,p2,poss,100,138,138,0,left,1.2027707499801181,None,None,,,,,,,,,,,0,138,138,230,228.74220141698606,,,,,,,,,,,,,,,,,,,,,,,,,,,,,,228.7373932079645,228.74220141698606,229.22967933298787,229.22967933298787,229.304277541989,229.304277541989,229.9575700829737,left,1.2027707499801181,None,229.95766608294798,229.9577147079981,None,,,,,,,,,,,,nateheller,0,2025-09-11_15h20.59.253,tilt_mocs,2024.2.4,None,2025-09-11 15h21.16.577422 -0400,
-2.9166666666666665,-15.0,m1,negs,100,139,139,0,left,1.384141249989625,None,None,,,,,,,,,,,0,139,139,364,229.97083562496118,,,,,,,,,,,,,,,,,,,,,,,,,,,,,,229.95936366700334,229.97083562496118,230.45386712497566,230.45386712497566,230.52641862496966,230.52641862496966,231.36468095798045,left,1.384141249989625,None,231.36476016696543,231.36479283298831,None,,,,,,,,,,,,nateheller,0,2025-09-11_15h20.59.253,tilt_mocs,2024.2.4,None,2025-09-11 15h21.16.577422 -0400,
-1.9166666666666663,-15.0,p1,negs,100,140,140,0,right,1.007777958002407,None,None,,,,,,,,,,,0,140,140,443,231.37045308295637,,,,,,,,,,,,,,,,,,,,,,,,,,,,,,231.3660937079694,231.37045308295637,231.86326933297096,231.86326933297096,231.93769320799038,231.93769320799038,232.38994937494863,right,1.007777958002407,None,232.39012420800282,232.3901848749956,None,,,,,,,,,,,,nateheller,0,2025-09-11_15h20.59.253,tilt_mocs,2024.2.4,None,2025-09-11 15h21.16.577422 -0400,
0.1944444444444444,15.0,m3,poss,100,141,141,0,left,1.0259138750261627,None,None,,,,,,,,,,,0,141,141,13,232.40010883298237,,,,,,,,,,,,,,,,,,,,,,,,,,,,,,232.39288199995644,232.40010883298237,232.88743762497324,232.88743762497324,232.95760570798302,232.95760570798302,233.43893720797496,left,1.0259138750261627,None,233.4390581669868,233.43912270799046,None,,,,,,,,,,,,nateheller,0,2025-09-11_15h20.59.253,tilt_mocs,2024.2.4,None,2025-09-11 15h21.16.577422 -0400,
-1.4166666666666663,-15.0,p2,negs,100,142,142,0,right,1.0074531249701977,None,None,,,,,,,,,,,0,142,142,480,233.44796204200247,,,,,,,,,,,,,,,,,,,,,,,,,,,,,,233.44126291695284,233.44796204200247,233.9362941669533,233.9362941669533,234.00737324997317,234.00737324997317,234.4627762499731,right,1.0074531249701977,None,234.46296879195143,234.46303758298745,None,,,,,,,,,,,,nateheller,0,2025-09-11_15h20.59.253,tilt_mocs,2024.2.4,None,2025-09-11 15h21.16.577422 -0400,
0.1944444444444444,15.0,m3,poss,100,143,143,0,left,1.2738378329668194,None,None,,,,,,,,,,,0,143,143,22,234.47427495796,,,,,,,,,,,,,,,,,,,,,,,,,,,,,,234.46591379196616,234.47427495796,234.96282033296302,234.96282033296302,235.03741470800014,235.03741470800014,235.75678549997974,left,1.2738378329668194,None,235.75698141695466,235.75704483297886,None,,,,,,,,,,,,nateheller,0,2025-09-11_15h20.59.253,tilt_mocs,2024.2.4,None,2025-09-11 15h21.16.577422 -0400,
-3.4166666666666665,-15.0,m2,negs,100,144,144,0,left,1.1731045420165174,None,None,,,,,,,,,,,0,144,144,325,235.76760095800273,,,,,,,,,,,,,,,,,,,,,,,,,,,,,,235.76017045800108,235.76760095800273,236.25287299999036,236.25287299999036,236.325999416993,236.325999416993,236.9464912499534,left,1.1731045420165174,None,236.94663591700373,236.94670391699765,None,,,,,,,,,,,,nateheller,0,2025-09-11_15h20.59.253,tilt_mocs,2024.2.4,None,2025-09-11 15h21.16.577422 -0400,
0.5277777777777778,0.0,p1,noss,0,145,145,0,right,1.2977541250293143,None,None,,,,,,,,,,,0,145,145,659,236.95791741699213,,,,,,,,,,,,,,,,,,,,,,,,,,,,,,236.94965974998195,236.95791741699213,237.44658429198898,237.44658429198898,237.5210857919883,237.5210857919883,238.26251579198288,right,1.2977541250293143,None,238.2626737919636,238.26273799996125,None,,,,,,,,,,,,nateheller,0,2025-09-11_15h20.59.253,tilt_mocs,2024.2.4,None,2025-09-11 15h21.16.577422 -0400,
-2.4166666666666665,-15.0,PSE,negs,100,146,146,0,right,1.299372375011444,None,None,,,,,,,,,,,0,146,146,401,238.27365170797566,,,,,,,,,,,,,,,,,,,,,,,,,,,,,,238.265515957959,238.27365170797566,238.76291745796334,238.76291745796334,238.8375597919803,238.8375597919803,239.57933316699928,right,1.299372375011444,None,239.57951670797775,239.5795807079994,None,,,,,,,,,,,,nateheller,0,2025-09-11_15h20.59.253,tilt_mocs,2024.2.4,None,2025-09-11 15h21.16.577422 -0400,
0.1944444444444444,15.0,m3,poss,100,147,147,0,left,1.0682775419554673,None,None,,,,,,,,,,,0,147,147,39,239.59002041700296,,,,,,,,,,,,,,,,,,,,,,,,,,,,,,239.58217237499775,239.59002041700296,240.08000279200496,240.08000279200496,240.1542417499586,240.1542417499586,240.66227545798756,left,1.0682775419554673,None,240.66241179197095,240.66245895798784,None,,,,,,,,,,,,nateheller,0,2025-09-11_15h20.59.253,tilt_mocs,2024.2.4,None,2025-09-11 15h21.16.577422 -0400,
-2.9166666666666665,-15.0,m1,negs,100,148,148,0,left,1.1501752919866703,None,None,,,,,,,,,,,0,148,148,380,240.6732554169721,,,,,,,,,,,,,,,,,,,,,,,,,,,,,,240.66526029194938,240.6732554169721,241.16001908294857,241.16001908294857,241.2362649999559,241.2362649999559,241.82557158300187,left,1.1501752919866703,None,241.82563341700006,241.82565712498035,None,,,,,,,,,,,,nateheller,0,2025-09-11_15h20.59.253,tilt_mocs,2024.2.4,None,2025-09-11 15h21.16.577422 -0400,
0.6944444444444444,15.0,m2,poss,100,149,149,0,left,1.1512287500081584,None,None,,,,,,,,,,,0,149,149,68,241.83640854200348,,,,,,,,,,,,,,,,,,,,,,,,,,,,,,241.8265631669783,241.83640854200348,242.32621787500102,242.32621787500102,242.4040588749922,242.4040588749922,242.99188795796363,left,1.1512287500081584,None,242.99194137495942,242.99196129199117,None,,,,,,,,,,,,nateheller,0,2025-09-11_15h20.59.253,tilt_mocs,2024.2.4,None,2025-09-11 15h21.16.577422 -0400,
-1.4166666666666663,-15.0,p2,negs,100,150,150,0,right,0.9672431250219233,None,None,,,,,,,,,,,0,150,150,501,243.00310441700276,,,,,,,,,,,,,,,,,,,,,,,,,,,,,,242.99288429197622,243.00310441700276,243.49218204198405,243.49218204198405,243.56967737496598,243.56967737496598,243.9724584579817,right,0.9672431250219233,None,243.97255658300128,243.97258987498935,None,,,,,,,,,,,,nateheller,0,2025-09-11_15h20.59.253,tilt_mocs,2024.2.4,None,2025-09-11 15h21.16.577422 -0400,
0.1944444444444444,15.0,m3,poss,100,151,151,0,left,1.0913515000138432,None,None,,,,,,,,,,,0,151,151,36,243.98057987500215,,,,,,,,,,,,,,,,,,,,,,,,,,,,,,243.97420274995966,243.98057987500215,244.47015675000148,244.47015675000148,244.54326266696444,244.54326266696444,245.08635787497042,left,1.0913515000138432,None,245.0864673749893,245.08651470800396,None,,,,,,,,,,,,nateheller,0,2025-09-11_15h20.59.253,tilt_mocs,2024.2.4,None,2025-09-11 15h21.16.577422 -0400,
-0.9166666666666664,-15.0,p3,negs,100,152,152,0,right,1.169536707981024,None,None,,,,,,,,,,,0,152,152,522,245.09390570799587,,,,,,,,,,,,,,,,,,,,,,,,,,,,,,245.08875683299266,245.09390570799587,245.57961174997035,245.57961174997035,245.65415245795157,245.65415245795157,246.27312808297575,right,1.169536707981024,None,246.27330912498292,246.27336599997943,None,,,,,,,,,,,,nateheller,0,2025-09-11_15h20.59.253,tilt_mocs,2024.2.4,None,2025-09-11 15h21.16.577422 -0400,
0.6944444444444444,15.0,m2,poss,100,153,153,0,left,1.0771773749729618,None,None,,,,,,,,,,,0,153,153,79,246.282849332958,,,,,,,,,,,,,,,,,,,,,,,,,,,,,,246.27557279198663,246.282849332958,246.77002808300313,246.77002808300313,246.8431616249727,246.8431616249727,247.36293987499084,left,1.0771773749729618,None,247.36316329200054,247.36322841700166,None,,,,,,,,,,,,nateheller,0,2025-09-11_15h20.59.253,tilt_mocs,2024.2.4,None,2025-09-11 15h21.16.577422 -0400,
0.1944444444444444,15.0,m3,poss,100,154,154,0,left,1.3642412499757484,None,None,,,,,,,,,,,0,154,154,25,247.3738720419933,,,,,,,,,,,,,,,,,,,,,,,,,,,,,,247.36616312497063,247.3738720419933,247.86156016698806,247.86156016698806,247.9441789999837,247.9441789999837,248.74116458295612,left,1.3642412499757484,None,248.74135537497932,248.74141645798227,None,,,,,,,,,,,,nateheller,0,2025-09-11_15h20.59.253,tilt_mocs,2024.2.4,None,2025-09-11 15h21.16.577422 -0400,
0.5277777777777778,0.0,p1,noss,0,155,155,0,right,1.1539312500390224,None,None,,,,,,,,,,,0,155,155,651,248.75090366695076,,,,,,,,,,,,,,,,,,,,,,,,,,,,,,248.7434457920026,248.75090366695076,249.23616645799484,249.23616645799484,249.31007824995322,249.31007824995322,249.90863470797194,right,1.1539312500390224,None,249.9088681669673,249.90893287496874,None,,,,,,,,,,,,nateheller,0,2025-09-11_15h20.59.253,tilt_mocs,2024.2.4,None,2025-09-11 15h21.16.577422 -0400,
1.6944444444444444,15.0,PSE,poss,100,156,156,0,left,1.3936693749856204,None,None,,,,,,,,,,,0,156,156,130,249.92055670794798,,,,,,,,,,,,,,,,,,,,,,,,,,,,,,249.91181324998615,249.92055670794798,250.40283499995712,250.40283499995712,250.47598604200175,250.47598604200175,251.32340437499806,left,1.3936693749856204,None,251.32361158297863,251.32367720798356,None,,,,,,,,,,,,nateheller,0,2025-09-11_15h20.59.253,tilt_mocs,2024.2.4,None,2025-09-11 15h21.16.577422 -0400,
0.9722222222222222,0.0,m2,noss,0,157,157,0,right,1.210884750005789,None,None,,,,,,,,,,,0,157,157,584,251.33676366700092,,,,,,,,,,,,,,,,,,,,,,,,,,,,,,251.3266098749591,251.33676366700092,251.81949716695817,251.81949716695817,251.89333383296616,251.89333383296616,252.55695616698358,right,1.210884750005789,None,252.55718241696013,252.55724649998592,None,,,,,,,,,,,,nateheller,0,2025-09-11_15h20.59.253,tilt_mocs,2024.2.4,None,2025-09-11 15h21.16.577422 -0400,
-3.4166666666666665,-15.0,m2,negs,100,158,158,0,left,1.0698794999625534,None,None,,,,,,,,,,,0,158,158,334,252.56819099996937,,,,,,,,,,,,,,,,,,,,,,,,,,,,,,252.56003787496593,252.56819099996937,253.05304162495304,253.05304162495304,253.12614479195327,253.12614479195327,253.6414593749796,left,1.0698794999625534,None,253.64169412496267,253.6417623749585,None,,,,,,,,,,,,nateheller,0,2025-09-11_15h20.59.253,tilt_mocs,2024.2.4,None,2025-09-11 15h21.16.577422 -0400,
3.1944444444444446,15.0,p3,poss,100,159,159,0,right,1.1270562919671647,None,None,,,,,,,,,,,0,159,159,277,253.65299862495158,,,,,,,,,,,,,,,,,,,,,,,,,,,,,,253.64466362498933,253.65299862495158,254.13729620794766,254.13729620794766,254.2095125829801,254.2095125829801,254.79038104199572,right,1.1270562919671647,None,254.79060370795196,254.79066708299797,None,,,,,,,,,,,,nateheller,0,2025-09-11_15h20.59.253,tilt_mocs,2024.2.4,None,2025-09-11 15h21.16.577422 -0400,
0.9722222222222222,0.0,m2,noss,0,160,160,0,right,1.2224748749868013,None,None,,,,,,,,,,,0,160,160,588,254.80353229196044,,,,,,,,,,,,,,,,,,,,,,,,,,,,,,254.79363654198823,254.80353229196044,255.28625670797192,255.28625670797192,255.35934541700408,255.35934541700408,256.0291487919749,right,1.2224748749868013,None,256.02935137494933,256.02942129195435,None,,,,,,,,,,,,nateheller,0,2025-09-11_15h20.59.253,tilt_mocs,2024.2.4,None,2025-09-11 15h21.16.577422 -0400,
-1.9166666666666663,-15.0,p1,negs,100,161,161,0,left,1.1141961250104941,None,None,,,,,,,,,,,0,161,161,449,256.04039308294887,,,,,,,,,,,,,,,,,,,,,,,,,,,,,,256.03230433299905,256.04039308294887,256.52962879196275,256.52962879196275,256.60413316695485,256.60413316695485,257.15723883296596,left,1.1141961250104941,None,257.1574285829556,257.15748333296506,None,,,,,,,,,,,,nateheller,0,2025-09-11_15h20.59.253,tilt_mocs,2024.2.4,None,2025-09-11 15h21.16.577422 -0400,
0.4722222222222222,0.0,m1,noss,0,162,162,0,right,1.1921083339839242,None,None,,,,,,,,,,,0,162,162,618,257.16729504195973,,,,,,,,,,,,,,,,,,,,,,,,,,,,,,257.1599154580035,257.16729504195973,257.6527998329839,257.6527998329839,257.72622595797293,257.72622595797293,258.3625103329541,right,1.1921083339839242,None,258.36266366695054,258.362732916954,None,,,,,,,,,,,,nateheller,0,2025-09-11_15h20.59.253,tilt_mocs,2024.2.4,None,2025-09-11 15h21.16.577422 -0400,
0.4722222222222222,0.0,m1,noss,0,163,163,0,left,1.3033600830240175,None,None,,,,,,,,,,,0,163,163,616,258.3736030419823,,,,,,,,,,,,,,,,,,,,,,,,,,,,,,258.36560933297733,258.3736030419823,258.8623194999527,258.8623194999527,258.9375563329668,258.9375563329668,259.6799651669571,left,1.3033600830240175,None,259.6801397499512,259.6802019579918,None,,,,,,,,,,,,nateheller,0,2025-09-11_15h20.59.253,tilt_mocs,2024.2.4,None,2025-09-11 15h21.16.577422 -0400,
0.1944444444444444,15.0,m3,poss,100,164,164,0,left,1.084343041991815,None,None,,,,,,,,,,,0,164,164,19,259.6907577079837,,,,,,,,,,,,,,,,,,,,,,,,,,,,,,259.6827085829573,259.6907577079837,260.1758289579884,260.1758289579884,260.25287420797395,260.25287420797395,260.7878573749913,left,1.084343041991815,None,260.78790983295767,260.7879309169948,None,,,,,,,,,,,,nateheller,0,2025-09-11_15h20.59.253,tilt_mocs,2024.2.4,None,2025-09-11 15h21.16.577422 -0400,
1.1944444444444444,15.0,m1,poss,100,165,165,0,left,1.0954047500272281,None,None,,,,,,,,,,,0,165,165,108,260.79292633297155,,,,,,,,,,,,,,,,,,,,,,,,,,,,,,260.7887335419655,260.79292633297155,261.27922033297364,261.27922033297364,261.3541864579893,261.3541864579893,261.89827587496256,left,1.0954047500272281,None,261.8983494999702,261.89838341699215,None,,,,,,,,,,,,nateheller,0,2025-09-11_15h20.59.253,tilt_mocs,2024.2.4,None,2025-09-11 15h21.16.577422 -0400,
0.1944444444444444,15.0,m3,poss,100,166,166,0,left,1.1681817499920726,None,None,,,,,,,,,,,0,166,166,37,261.9202204999747,,,,,,,,,,,,,,,,,,,,,,,,,,,,,,261.8997066669981,261.9202204999747,262.3927662499482,262.3927662499482,262.46945945796324,262.46945945796324,263.10017395799514,left,1.1681817499920726,None,263.10028954199515,263.100333874987,None,,,,,,,,,,,,nateheller,0,2025-09-11_15h20.59.253,tilt_mocs,2024.2.4,None,2025-09-11 15h21.16.577422 -0400,
1.6944444444444444,15.0,PSE,poss,100,167,167,0,left,1.7051367910462432,None,None,,,,,,,,,,,0,167,167,122,263.1068457919755,,,,,,,,,,,,,,,,,,,,,,,,,,,,,,263.10217737499624,263.1068457919755,263.5951837079483,263.5951837079483,263.67115391697735,263.67115391697735,264.82385345798684,left,1.7051367910462432,None,264.82406795799034,264.8241353749763,None,,,,,,,,,,,,nateheller,0,2025-09-11_15h20.59.253,tilt_mocs,2024.2.4,None,2025-09-11 15h21.16.577422 -0400,
0.5277777777777778,0.0,p1,noss,0,168,168,0,left,1.186150167020969,None,None,,,,,,,,,,,0,168,168,642,264.83670766698197,,,,,,,,,,,,,,,,,,,,,,,,,,,,,,264.82697491697036,264.83670766698197,265.31938004196854,265.31938004196854,265.39304358296795,265.39304358296795,266.02831754198996,left,1.186150167020969,None,266.02846462494927,266.028513541969,None,,,,,,,,,,,,nateheller,0,2025-09-11_15h20.59.253,tilt_mocs,2024.2.4,None,2025-09-11 15h21.16.577422 -0400,
2.1944444444444446,15.0,p1,poss,100,169,169,0,right,1.0933347080135718,None,None,,,,,,,,,,,0,169,169,186,266.0396637079539,,,,,,,,,,,,,,,,,,,,,,,,,,,,,,266.0310494999867,266.0396637079539,266.52931924996665,266.52931924996665,266.6040498749935,266.6040498749935,267.1398150000023,right,1.0933347080135718,None,267.13992304197745,267.139963374997,None,,,,,,,,,,,,nateheller,0,2025-09-11_15h20.59.253,tilt_mocs,2024.2.4,None,2025-09-11 15h21.16.577422 -0400,
-1.4166666666666663,-15.0,p2,negs,100,170,170,0,left,1.3893517079995945,None,None,,,,,,,,,,,0,170,170,514,267.149040957971,,,,,,,,,,,,,,,,,,,,,,,,,,,,,,267.14191587496316,267.149040957971,267.63640324998414,267.63640324998414,267.7097949999734,267.7097949999734,268.54936345794704,left,1.3893517079995945,None,268.5494390829699,268.54947491700295,None,,,,,,,,,,,,nateheller,0,2025-09-11_15h20.59.253,tilt_mocs,2024.2.4,None,2025-09-11 15h21.16.577422 -0400,
-1.9166666666666663,-15.0,p1,negs,100,171,171,0,left,1.0486991250072606,None,None,,,,,,,,,,,0,171,171,448,268.5564409169601,,,,,,,,,,,,,,,,,,,,,,,,,,,,,,268.55084354197606,268.5564409169601,269.0469460419845,269.0469460419845,269.12082616699627,269.12082616699627,269.61857529199915,left,1.0486991250072606,None,269.61867399996845,269.6187195829698,None,,,,,,,,,,,,nateheller,0,2025-09-11_15h20.59.253,tilt_mocs,2024.2.4,None,2025-09-11 15h21.16.577422 -0400,
-2.4166666666666665,-15.0,PSE,negs,100,172,172,0,left,1.2043793750344776,None,None,,,,,,,,,,,0,172,172,432,269.6262220829958,,,,,,,,,,,,,,,,,,,,,,,,,,,,,,269.6212349169655,269.6262220829958,270.11376070795814,270.11376070795814,270.1874559579883,270.1874559579883,270.8400648329989,left,1.2043793750344776,None,270.8402614579536,270.8403255419689,None,,,,,,,,,,,,nateheller,0,2025-09-11_15h20.59.253,tilt_mocs,2024.2.4,None,2025-09-11 15h21.16.577422 -0400,
-2.9166666666666665,-15.0,m1,negs,100,173,173,0,left,1.1287364589516073,None,None,,,,,,,,,,,0,173,173,389,270.85067408299074,,,,,,,,,,,,,,,,,,,,,,,,,,,,,,270.84318612498464,270.85067408299074,271.337512707978,271.337512707978,271.40821537497686,271.40821537497686,271.98986062494805,left,1.1287364589516073,None,271.9900427919929,271.9901040829718,None,,,,,,,,,,,,nateheller,0,2025-09-11_15h20.59.253,tilt_mocs,2024.2.4,None,2025-09-11 15h21.16.577422 -0400,
-2.9166666666666665,-15.0,m1,negs,100,174,174,0,left,1.0792070839670487,None,None,,,,,,,,,,,0,174,174,391,272.0003284579725,,,,,,,,,,,,,,,,,,,,,,,,,,,,,,271.9926737920032,272.0003284579725,272.48659954196773,272.48659954196773,272.5594039579737,272.5594039579737,273.0901812919765,left,1.0792070839670487,None,273.09039404196665,273.09046229196247,None,,,,,,,,,,,,nateheller,0,2025-09-11_15h20.59.253,tilt_mocs,2024.2.4,None,2025-09-11 15h21.16.577422 -0400,
2.1944444444444446,15.0,p1,poss,100,175,175,0,right,1.2732321670046076,None,None,,,,,,,,,,,0,175,175,167,273.10327754198806,,,,,,,,,,,,,,,,,,,,,,,,,,,,,,273.0933809999842,273.10327754198806,273.5861288749729,273.5861288749729,273.65958295797464,273.65958295797464,274.3791045830003,right,1.2732321670046076,None,274.3792646669899,274.3793280419777,None,,,,,,,,,,,,nateheller,0,2025-09-11_15h20.59.253,tilt_mocs,2024.2.4,None,2025-09-11 15h21.16.577422 -0400,
0.5277777777777778,0.0,p1,noss,0,176,176,0,left,1.2410554160014726,None,None,,,,,,,,,,,0,176,176,650,274.3903493749676,,,,,,,,,,,,,,,,,,,,,,,,,,,,,,274.38193595799385,274.3903493749676,274.8784867079812,274.8784867079812,274.95431929198094,274.95431929198094,275.6405519169639,left,1.2410554160014726,None,275.6407591669704,275.6408213749528,None,,,,,,,,,,,,nateheller,0,2025-09-11_15h20.59.253,tilt_mocs,2024.2.4,None,2025-09-11 15h21.16.577422 -0400,
0.6944444444444444,15.0,m2,poss,100,177,177,0,left,1.036257125029806,None,None,,,,,,,,,,,0,177,177,50,275.6523981670034,,,,,,,,,,,,,,,,,,,,,,,,,,,,,,275.64371204195777,275.6523981670034,276.13602749997517,276.13602749997517,276.2095799999661,276.2095799999661,276.7007547079702,left,1.036257125029806,None,276.7008472919697,276.7008857919718,None,,,,,,,,,,,,nateheller,0,2025-09-11_15h20.59.253,tilt_mocs,2024.2.4,None,2025-09-11 15h21.16.577422 -0400,
-3.9166666666666665,-15.0,m3,negs,100,178,178,0,left,1.0894952499656938,None,None,,,,,,,,,,,0,178,178,292,276.70660037494963,,,,,,,,,,,,,,,,,,,,,,,,,,,,,,276.70254495798144,276.70660037494963,277.1950187079492,277.1950187079492,277.27078099997016,277.27078099997016,277.80695516697597,left,1.0894952499656938,None,277.8072135829716,277.80727804196067,None,,,,,,,,,,,,nateheller,0,2025-09-11_15h20.59.253,tilt_mocs,2024.2.4,None,2025-09-11 15h21.16.577422 -0400,
0.4722222222222222,0.0,m1,noss,0,179,179,0,right,1.2409980419906788,None,None,,,,,,,,,,,0,179,179,619,277.8203567499877,,,,,,,,,,,,,,,,,,,,,,,,,,,,,,277.8111222499865,277.8203567499877,278.30384437495377,278.30384437495377,278.3764109579497,278.3764109579497,279.0735849579796,right,1.2409980419906788,None,279.07373308297247,279.0737874999759,None,,,,,,,,,,,,nateheller,0,2025-09-11_15h20.59.253,tilt_mocs,2024.2.4,None,2025-09-11 15h21.16.577422 -0400,
-0.9166666666666664,-15.0,p3,negs,100,180,180,0,right,1.2226919999811798,None,None,,,,,,,,,,,0,180,180,547,279.0835880419472,,,,,,,,,,,,,,,,,,,,,,,,,,,,,,279.07572774996515,279.0835880419472,279.56926137499977,279.56926137499977,279.64326041698223,279.64326041698223,280.3123560829554,right,1.2226919999811798,None,280.3125132499845,280.31257758295396,None,,,,,,,,,,,,nateheller,0,2025-09-11_15h20.59.253,tilt_mocs,2024.2.4,None,2025-09-11 15h21.16.577422 -0400,
-3.4166666666666665,-15.0,m2,negs,100,181,181,0,left,1.0515289999893866,None,None,,,,,,,,,,,0,181,181,348,280.3240578749683,,,,,,,,,,,,,,,,,,,,,,,,,,,,,,280.31556187500246,280.3240578749683,280.8131738329539,280.8131738329539,280.8870284999721,280.8870284999721,281.3788177079987,left,1.0515289999893866,None,281.3789617919829,281.379009916971,None,,,,,,,,,,,,nateheller,0,2025-09-11_15h20.59.253,tilt_mocs,2024.2.4,None,2025-09-11 15h21.16.577422 -0400,
-3.4166666666666665,-15.0,m2,negs,100,182,182,0,left,1.5382860000245273,None,None,,,,,,,,,,,0,182,182,352,281.389936749998,,,,,,,,,,,,,,,,,,,,,,,,,,,,,,281.38196012499975,281.389936749998,281.8764483749983,281.8764483749983,281.9532705829479,281.9532705829479,282.94053087499924,left,1.5382860000245273,None,282.9407114999485,282.940772916947,None,,,,,,,,,,,,nateheller,0,2025-09-11_15h20.59.253,tilt_mocs,2024.2.4,None,2025-09-11 15h21.16.577422 -0400,
2.6944444444444446,15.0,p2,poss,100,183,183,0,right,1.1869365000166,None,None,,,,,,,,,,,0,183,183,210,282.9521315829479,,,,,,,,,,,,,,,,,,,,,,,,,,,,,,282.9435820829822,282.9521315829479,283.43644254194805,283.43644254194805,283.50773112499155,283.50773112499155,284.14553549996344,right,1.1869365000166,None,284.14566679199925,284.1457177079865,None,,,,,,,,,,,,nateheller,0,2025-09-11_15h20.59.253,tilt_mocs,2024.2.4,None,2025-09-11 15h21.16.577422 -0400,
0.0277777777777777,0.0,PSE,noss,0,184,184,0,left,1.439646749990061,None,None,,,,,,,,,,,0,184,184,627,284.15646583295893,,,,,,,,,,,,,,,,,,,,,,,,,,,,,,284.14826737495605,284.15646583295893,284.64571254199836,284.64571254199836,284.72075641696574,284.72075641696574,285.60669283295283,left,1.439646749990061,None,285.606913333002,285.60697995795636,None,,,,,,,,,,,,nateheller,0,2025-09-11_15h20.59.253,tilt_mocs,2024.2.4,None,2025-09-11 15h21.16.577422 -0400,
1.0277777777777777,0.0,p2,noss,0,185,185,0,right,0.9994220000226051,None,None,,,,,,,,,,,0,185,185,668,285.61896999995224,,,,,,,,,,,,,,,,,,,,,,,,,,,,,,285.6097762499703,285.61896999995224,286.1040425829706,286.1040425829706,286.17538349999813,286.17538349999813,286.6235027919756,right,0.9994220000226051,None,286.623741999967,286.6238123329822,None,,,,,,,,,,,,nateheller,0,2025-09-11_15h20.59.253,tilt_mocs,2024.2.4,None,2025-09-11 15h21.16.577422 -0400,
0.1944444444444444,15.0,m3,poss,100,186,186,0,left,1.2195133750210516,None,None,,,,,,,,,,,0,186,186,10,286.6360072919633,,,,,,,,,,,,,,,,,,,,,,,,,,,,,,286.62675033300184,286.6360072919633,287.1198761249543,287.1198761249543,287.1927844999591,287.1927844999591,287.8625804169569,left,1.2195133750210516,None,287.86277204198996,287.86283879197435,None,,,,,,,,,,,,nateheller,0,2025-09-11_15h20.59.253,tilt_mocs,2024.2.4,None,2025-09-11 15h21.16.577422 -0400,
-2.9166666666666665,-15.0,m1,negs,100,187,187,0,left,1.172406541008968,None,None,,,,,,,,,,,0,187,187,362,287.87404733296717,,,,,,,,,,,,,,,,,,,,,,,,,,,,,,287.86576924996916,287.87404733296717,288.3639511249494,288.3639511249494,288.4371391249588,288.4371391249588,289.0574732919922,left,1.172406541008968,None,289.05767804197967,289.057742666977,None,,,,,,,,,,,,nateheller,0,2025-09-11_15h20.59.253,tilt_mocs,2024.2.4,None,2025-09-11 15h21.16.577422 -0400,
1.5277777777777777,0.0,p3,noss,0,188,188,0,right,1.0807500830269419,None,None,,,,,,,,,,,0,188,188,696,289.0692109579686,,,,,,,,,,,,,,,,,,,,,,,,,,,,,,289.0604759999551,289.0692109579686,289.55275262496434,289.55275262496434,289.624684624956,289.624684624956,290.1563686669688,right,1.0807500830269419,None,290.1564878329518,290.15652920800494,None,,,,,,,,,,,,nateheller,0,2025-09-11_15h20.59.253,tilt_mocs,2024.2.4,None,2025-09-11 15h21.16.577422 -0400,
1.1944444444444444,15.0,m1,poss,100,189,189,0,left,1.7901695829932578,None,None,,,,,,,,,,,0,189,189,105,290.1653843749664,,,,,,,,,,,,,,,,,,,,,,,,,,,,,,290.15835466695717,290.1653843749664,290.6527017079643,290.6527017079643,290.7263562079752,290.7263562079752,291.96205349999946,left,1.7901695829932578,None,291.962187541998,291.96224145794986,None,,,,,,,,,,,,nateheller,0,2025-09-11_15h20.59.253,tilt_mocs,2024.2.4,None,2025-09-11 15h21.16.577422 -0400,
-0.9166666666666664,-15.0,p3,negs,100,190,190,0,right,1.477615958021488,None,None,,,,,,,,,,,0,190,190,532,291.97332462499617,,,,,,,,,,,,,,,,,,,,,,,,,,,,,,291.96487791696563,291.97332462499617,292.4624154579942,292.4624154579942,292.53727704199264,292.53727704199264,293.4554178749677,right,1.477615958021488,None,293.45555324997986,293.4556053329725,None,,,,,,,,,,,,nateheller,0,2025-09-11_15h20.59.253,tilt_mocs,2024.2.4,None,2025-09-11 15h21.16.577422 -0400,
0.0277777777777777,0.0,PSE,noss,0,191,191,0,right,1.1101061660447158,None,None,,,,,,,,,,,0,191,191,625,293.46433508297196,,,,,,,,,,,,,,,,,,,,,,,,,,,,,,293.45769304200076,293.46433508297196,293.95291691698367,293.95291691698367,294.0239874579711,294.0239874579711,294.57895949995145,right,1.1101061660447158,None,294.5790909579955,294.57913891697535,None,,,,,,,,,,,,nateheller,0,2025-09-11_15h20.59.253,tilt_mocs,2024.2.4,None,2025-09-11 15h21.16.577422 -0400,
0.1944444444444444,15.0,m3,poss,100,192,192,0,left,1.1389044590177946,None,None,,,,,,,,,,,0,192,192,18,294.5896636249963,,,,,,,,,,,,,,,,,,,,,,,,,,,,,,294.58189208299154,294.5896636249963,295.0794972080039,295.0794972080039,295.1537268329994,295.1537268329994,295.7399755420047,left,1.1389044590177946,None,295.7401739169727,295.7402287499863,None,,,,,,,,,,,,nateheller,0,2025-09-11_15h20.59.253,tilt_mocs,2024.2.4,None,2025-09-11 15h21.16.577422 -0400,
-2.9166666666666665,-15.0,m1,negs,100,193,193,0,left,1.4731532909790985,None,None,,,,,,,,,,,0,193,193,385,295.7502999579883,,,,,,,,,,,,,,,,,,,,,,,,,,,,,,295.7431260829908,295.7502999579883,296.2359259169898,296.2359259169898,296.3082172499853,296.3082172499853,297.2292379999999,left,1.4731532909790985,None,297.22942241700366,297.22948937496403,None,,,,,,,,,,,,nateheller,0,2025-09-11_15h20.59.253,tilt_mocs,2024.2.4,None,2025-09-11 15h21.16.577422 -0400,
3.1944444444444446,15.0,p3,poss,100,194,194,0,left,1.4640651670051739,None,None,,,,,,,,,,,0,194,194,253,297.24100062495563,,,,,,,,,,,,,,,,,,,,,,,,,,,,,,297.232429124997,297.24100062495563,297.72872712498065,297.72872712498065,297.8039837079705,297.8039837079705,298.7106020829524,left,1.4640651670051739,None,298.71070179197704,298.71074345795205,None,,,,,,,,,,,,nateheller,0,2025-09-11_15h20.59.253,tilt_mocs,2024.2.4,None,2025-09-11 15h21.16.577422 -0400,
-2.9166666666666665,-15.0,m1,negs,100,195,195,0,left,1.2128560000564903,None,None,,,,,,,,,,,0,195,195,393,298.71984516695375,,,,,,,,,,,,,,,,,,,,,,,,,,,,,,298.71252099995036,298.71984516695375,299.2128309579566,299.2128309579566,299.28744587500114,299.28744587500114,299.9400712499628,left,1.2128560000564903,None,299.94028999999864,299.94036045798566,None,,,,,,,,,,,,nateheller,0,2025-09-11_15h20.59.253,tilt_mocs,2024.2.4,None,2025-09-11 15h21.16.577422 -0400,
1.6944444444444444,15.0,PSE,poss,100,196,196,0,left,1.235860499960836,None,None,,,,,,,,,,,0,196,196,132,299.95322816696716,,,,,,,,,,,,,,,,,,,,,,,,,,,,,,299.94331404200057,299.95322816696716,300.43600045796484,300.43600045796484,300.5081189170014,300.5081189170014,301.19579704198986,left,1.235860499960836,None,301.1959538329975,301.1960104579921,None,,,,,,,,,,,,nateheller,0,2025-09-11_15h20.59.253,tilt_mocs,2024.2.4,None,2025-09-11 15h21.16.577422 -0400,
-2.9166666666666665,-15.0,m1,negs,100,197,197,0,left,1.157943208992947,None,None,,,,,,,,,,,0,197,197,368,301.20667079195846,,,,,,,,,,,,,,,,,,,,,,,,,,,,,,301.1986395419808,301.20667079195846,301.69466524996096,301.69466524996096,301.7707951249904,301.7707951249904,302.3708652499481,left,1.157943208992947,None,302.37092849996407,302.37095329200383,None,,,,,,,,,,,,nateheller,0,2025-09-11_15h20.59.253,tilt_mocs,2024.2.4,None,2025-09-11 15h21.16.577422 -0400,
0.1944444444444444,15.0,m3,poss,100,198,198,0,left,1.2729816249920987,None,None,,,,,,,,,,,0,198,198,21,302.3767526249867,,,,,,,,,,,,,,,,,,,,,,,,,,,,,,302.3720434169518,302.3767526249867,302.8619905829546,302.8619905829546,302.93747208296554,302.93747208296554,303.6571709580021,left,1.2729816249920987,None,303.6574084999738,303.65748187497957,None,,,,,,,,,,,,nateheller,0,2025-09-11_15h20.59.253,tilt_mocs,2024.2.4,None,2025-09-11 15h21.16.577422 -0400,
-2.4166666666666665,-15.0,PSE,negs,100,199,199,0,right,1.9223760419990867,None,None,,,,,,,,,,,0,199,199,400,303.66882204200374,,,,,,,,,,,,,,,,,,,,,,,,,,,,,,303.66031329199905,303.66882204200374,304.15262345795054,304.15262345795054,304.2257457919768,304.2257457919768,305.59502945799613,right,1.9223760419990867,None,305.5951867499971,305.5952503749868,None,,,,,,,,,,,,nateheller,0,2025-09-11_15h20.59.253,tilt_mocs,2024.2.4,None,2025-09-11 15h21.16.577422 -0400,
-2.4166666666666665,-15.0,PSE,negs,100,200,200,0,left,1.2500801669666544,None,None,,,,,,,,,,,0,200,200,404,305.6066487499629,,,,,,,,,,,,,,,,,,,,,,,,,,,,,,305.59801866696216,305.6066487499629,306.09648833295796,306.09648833295796,306.170753082959,306.170753082959,306.8620214999537,left,1.2500801669666544,None,306.8621540829772,306.86220012500416,None,,,,,,,,,,,,nateheller,0,2025-09-11_15h20.59.253,tilt_mocs,2024.2.4,None,2025-09-11 15h21.16.577422 -0400,
1.6944444444444444,15.0,PSE,poss,100,201,201,0,left,1.198472457996104,None,None,,,,,,,,,,,0,201,201,145,306.8729394580005,,,,,,,,,,,,,,,,,,,,,,,,,,,,,,306.86457937496016,306.8729394580005,307.3620998329716,307.3620998329716,307.43738812499214,307.43738812499214,308.07482079195324,left,1.198472457996104,None,308.07503991696285,308.07510854199063,None,,,,,,,,,,,,nateheller,0,2025-09-11_15h20.59.253,tilt_mocs,2024.2.4,None,2025-09-11 15h21.16.577422 -0400,
3.1944444444444446,15.0,p3,poss,100,202,202,0,left,3.189344791986514,None,None,,,,,,,,,,,0,202,202,262,308.0854137080023,,,,,,,,,,,,,,,,,,,,,,,,,,,,,,308.0777937079547,308.0854137080023,308.5692316669738,308.5692316669738,308.6430937499972,308.6430937499972,311.2776082920027,left,3.189344791986514,None,311.2777226669714,311.2777642919682,None,,,,,,,,,,,,nateheller,0,2025-09-11_15h20.59.253,tilt_mocs,2024.2.4,None,2025-09-11 15h21.16.577422 -0400,
1.0277777777777777,0.0,p2,noss,0,203,203,0,right,1.0697004160028882,None,None,,,,,,,,,,,0,203,203,674,311.3037539169891,,,,,,,,,,,,,,,,,,,,,,,,,,,,,,311.27991929196287,311.3037539169891,311.7794715829659,311.7794715829659,311.85401762498077,311.85401762498077,312.3783793329494,right,1.0697004160028882,None,312.37851941696135,312.3785710829543,None,,,,,,,,,,,,nateheller,0,2025-09-11_15h20.59.253,tilt_mocs,2024.2.4,None,2025-09-11 15h21.16.577422 -0400,
-1.9166666666666663,-15.0,p1,negs,100,204,204,0,right,1.122600499948021,None,None,,,,,,,,,,,0,204,204,440,312.38985337497434,,,,,,,,,,,,,,,,,,,,,,,,,,,,,,312.38112608296797,312.38985337497434,312.87916495796526,312.87916495796526,312.9540496249683,312.9540496249683,313.5234286249615,right,1.122600499948021,None,313.5236423329916,313.5237033329904,None,,,,,,,,,,,,nateheller,0,2025-09-11_15h20.59.253,tilt_mocs,2024.2.4,None,2025-09-11 15h21.16.577422 -0400,
2.6944444444444446,15.0,p2,poss,100,205,205,0,right,1.3543288329965435,None,None,,,,,,,,,,,0,205,205,216,313.5346295419731,,,,,,,,,,,,,,,,,,,,,,,,,,,,,,313.52728149999166,313.5346295419731,314.0191713749664,314.0191713749664,314.09285408299183,314.09285408299183,314.8956088749692,right,1.3543288329965435,None,314.89577029197244,314.89586083299946,None,,,,,,,,,,,,nateheller,0,2025-09-11_15h20.59.253,tilt_mocs,2024.2.4,None,2025-09-11 15h21.16.577422 -0400,
1.4722222222222223,0.0,m3,noss,0,206,206,0,right,1.1102260000188835,None,None,,,,,,,,,,,0,206,206,576,314.90748854196863,,,,,,,,,,,,,,,,,,,,,,,,,,,,,,314.89873949997127,314.90748854196863,315.39621629199246,315.39621629199246,315.47078258299734,315.47078258299734,316.0228449169663,right,1.1102260000188835,None,316.02302749996306,316.0230754579534,None,,,,,,,,,,,,nateheller,0,2025-09-11_15h20.59.253,tilt_mocs,2024.2.4,None,2025-09-11 15h21.16.577422 -0400,
-3.4166666666666665,-15.0,m2,negs,100,207,207,0,left,1.231470166996587,None,None,,,,,,,,,,,0,207,207,351,316.0325189579744,,,,,,,,,,,,,,,,,,,,,,,,,,,,,,316.0251961249742,316.0325189579744,316.5193525420036,316.5193525420036,316.5929534579627,316.5929534579627,317.27162766695255,left,1.231470166996587,None,317.2717134580016,317.2717484169989,None,,,,,,,,,,,,nateheller,0,2025-09-11_15h20.59.253,tilt_mocs,2024.2.4,None,2025-09-11 15h21.16.577422 -0400,
0.5277777777777778,0.0,p1,noss,0,208,208,0,right,1.2657752499799244,None,None,,,,,,,,,,,0,208,208,658,317.279178583005,,,,,,,,,,,,,,,,,,,,,,,,,,,,,,317.2732602079632,317.279178583005,317.76962712500244,317.76962712500244,317.84022162499605,317.84022162499605,318.55484504200285,right,1.2657752499799244,None,318.55490304197883,318.5549253329518,None,,,,,,,,,,,,nateheller,0,2025-09-11_15h20.59.253,tilt_mocs,2024.2.4,None,2025-09-11 15h21.16.577422 -0400,
0.9722222222222222,0.0,m2,noss,0,209,209,0,right,1.3014962080051191,None,None,,,,,,,,,,,0,209,209,586,318.56197970797075,,,,,,,,,,,,,,,,,,,,,,,,,,,,,,318.5559806249803,318.56197970797075,319.0530557919992,319.0530557919992,319.1251995419734,319.1251995419734,319.87138049997156,right,1.3014962080051191,None,319.87145299999975,319.87148154195165,None,,,,,,,,,,,,nateheller,0,2025-09-11_15h20.59.253,tilt_mocs,2024.2.4,None,2025-09-11 15h21.16.577422 -0400,
0.6944444444444444,15.0,m2,poss,100,210,210,0,left,1.093355499964673,None,None,,,,,,,,,,,0,210,210,71,319.87834212498274,,,,,,,,,,,,,,,,,,,,,,,,,,,,,,319.8727365419618,319.87834212498274,320.362813832995,320.362813832995,320.4373708329513,320.4373708329513,320.9816985419602,left,1.093355499964673,None,320.9817875829758,320.9818262079498,None,,,,,,,,,,,,nateheller,0,2025-09-11_15h20.59.253,tilt_mocs,2024.2.4,None,2025-09-11 15h21.16.577422 -0400,
-2.9166666666666665,-15.0,m1,negs,100,211,211,0,left,1.3251454579876736,None,None,,,,,,,,,,,0,211,211,382,320.9891286249622,,,,,,,,,,,,,,,,,,,,,,,,,,,,,,320.98355362500297,320.9891286249622,321.47960354195675,321.47960354195675,321.55402499996126,321.55402499996126,322.32353254198097,left,1.3251454579876736,None,322.32371949998196,322.3237832500017,None,,,,,,,,,,,,nateheller,0,2025-09-11_15h20.59.253,tilt_mocs,2024.2.4,None,2025-09-11 15h21.16.577422 -0400,
-0.9166666666666664,-15.0,p3,negs,100,212,212,0,right,1.0514997499994934,None,None,,,,,,,,,,,0,212,212,540,322.33643774996744,,,,,,,,,,,,,,,,,,,,,,,,,,,,,,322.32652337499894,322.33643774996744,322.81966933299555,322.81966933299555,322.8930932919611,322.8930932919611,323.39808504196117,right,1.0514997499994934,None,323.39818445796845,323.398224457982,None,,,,,,,,,,,,nateheller,0,2025-09-11_15h20.59.253,tilt_mocs,2024.2.4,None,2025-09-11 15h21.16.577422 -0400,
