center,surround,correct,thisN,thisTrialN,thisRepN,key_resp_3.keys,key_resp_3.corr,key_resp_3.rt,key_resp_3.duration,opacity,key_resp_4.keys,key_resp_4.corr,key_resp_4.rt,key_resp_4.duration,type,surr_type,surr_opacity,resp.keys,resp.rt,resp.duration,key_resp_10.keys,key_resp_10.rt,key_resp_10.duration,practice_no_time.thisRepN,practice_no_time.thisTrialN,practice_no_time.thisN,practice_no_time.thisIndex,practice_timed.thisRepN,practice_timed.thisTrialN,practice_timed.thisN,practice_timed.thisIndex,trials.thisRepN,trials.thisTrialN,trials.thisN,trials.thisIndex,thisRow.t,notes,instr.started,text_5.started,key_resp_2.started,instr.stopped,key_resp_2.keys,key_resp_2.rt,key_resp_2.duration,instr2.started,text_6.started,key_resp_6.started,instr2.stopped,key_resp_6.keys,key_resp_6.rt,key_resp_6.duration,practice_trial.started,key_resp_3.started,surround_practice.started,center_practice.started,practice_trial.stopped,practice_no_time.key_resp_3.keys,practice_no_time.key_resp_3.corr,practice_no_time.key_resp_3.rt,practice_no_time.key_resp_3.duration,practice_feedback.started,text_7.started,practice_feedback.stopped,text_7.stopped,instr3.started,text_8.started,key_resp_5.started,instr3.stopped,key_resp_5.keys,key_resp_5.rt,key_resp_5.duration,practice_trial_timed.started,key_resp_4.started,surround_practice_2.started,center_practice_2.started,surround_practice_2.stopped,center_practice_2.stopped,text_12.started,practice_trial_timed.stopped,practice_timed.key_resp_4.keys,practice_timed.key_resp_4.corr,practice_timed.key_resp_4.rt,practice_timed.key_resp_4.duration,start_instr.started,text_13.started,key_resp_8.started,start_instr.stopped,key_resp_8.keys,key_resp_8.rt,key_resp_8.duration,trial.started,resp.started,surround_grating.started,center_grating.started,surround_grating.stopped,center_grating.stopped,trial.stopped,trials.resp.keys,trials.resp.rt,trials.resp.duration,break_2.started,break_2.stopped,trials.key_resp_10.keys,text_2.started,key_resp_10.started,trials.key_resp_10.rt,trials.key_resp_10.duration,end.started,text_14.started,key_resp.started,end.stopped,key_resp.keys,key_resp.rt,key_resp.duration,sub,ses,date,expName,psychopyVersion,frameRate,expStart,
,,,,,,,,,,,,,,,,,,,,,,,,,,,,,,,,,,,,,,0.008886916999472305,0.016103624999232125,0.016103624999232125,6.551509291999537,space,6.490588374999788,None,,,,,,,,,,,,,,,,,,,,,,,,,,,,,,,,,,,,,,,,,,,,,,,,,,,,,,,,,,,,,,,,,,,,,,,21049999,0,2025-10-17_11h19.50.555,tilt_mocs,2024.2.4,120.1062931082786,2025-10-17 11h19.58.011691 -0400,
,,,,,,,,,,,,,,,,,,,,,,,,,,,,,,,,,,,,,,,,,,,,,6.5515826669980015,6.5652055840000685,6.5652055840000685,7.932996749997983,space,1.3557528329984052,None,,,,,,,,,,,,,,,,,,,,,,,,,,,,,,,,,,,,,,,,,,,,,,,,,,,,,,,,,,,,,,,,21049999,0,2025-10-17_11h19.50.555,tilt_mocs,2024.2.4,120.1062931082786,2025-10-17 11h19.58.011691 -0400,
30,0,right,0,0,0,right,1,1.1217557080017286,None,,,,,,,,,,,,,,,0,0,0,0,,,,,,,,,7.950067958998261,,,,,,,,,,,,,,,,7.944474625001021,7.950067958998261,8.439702416999353,8.439702416999353,9.078613834000862,right,1,1.1217557080017286,None,9.083997334000742,9.141508791999513,10.587198334000277,,,,,,,,,,,,,,,,,,,,,,,,,,,,,,,,,,,,,,,,,,,,,,,,,,,,21049999,0,2025-10-17_11h19.50.555,tilt_mocs,2024.2.4,120.1062931082786,2025-10-17 11h19.58.011691 -0400,
-30,0,left,1,1,0,left,1,0.9619561670006078,None,,,,,,,,,,,,,,,0,1,1,1,,,,,,,,,10.595403249997617,,,,,,,,,,,,,,,,10.589652416998433,10.595403249997617,11.078479208998033,11.078479208998033,11.561862999998993,left,1,0.9619561670006078,None,11.56196799999816,11.570843249999598,13.054370875001041,13.062466958999721,,,,,,,,,,,,,,,,,,,,,,,,,,,,,,,,,,,,,,,,,,,,,,,,,,,21049999,0,2025-10-17_11h19.50.555,tilt_mocs,2024.2.4,120.1062931082786,2025-10-17 11h19.58.011691 -0400,
30,60,right,2,2,0,right,1,1.0655320410005515,None,,,,,,,,,,,,,,,0,2,2,2,,,,,,,,,13.062466958999721,,,,,,,,,,,,,,,,13.056813833998604,13.062466958999721,13.562562916999013,13.562562916999013,14.139386874998308,right,1,1.0655320410005515,None,14.139506084000459,14.148042291999445,15.637889792000351,15.646082958999614,,,,,,,,,,,,,,,,,,,,,,,,,,,,,,,,,,,,,,,,,,,,,,,,,,,21049999,0,2025-10-17_11h19.50.555,tilt_mocs,2024.2.4,120.1062931082786,2025-10-17 11h19.58.011691 -0400,
-30,-60,left,3,3,0,left,1,0.9863594169983116,None,,,,,,,,,,,,,,,0,3,3,3,,,,,,,,,15.646082958999614,,,,,,,,,,,,,,,,15.640277374997822,15.646082958999614,16.135786499999085,16.135786499999085,16.639169375001075,left,1,0.9863594169983116,None,16.639299541999208,16.647721708999597,18.13799766699958,18.145729874999233,,,,,,,,,,,,,,,,,,,,,,,,,,,,,,,,,,,,,,,,,,,,,,,,,,,21049999,0,2025-10-17_11h19.50.555,tilt_mocs,2024.2.4,120.1062931082786,2025-10-17 11h19.58.011691 -0400,
,,,,,,,,,,,,,,,,,,,,,,,,,,,,,,,,,,,,,,,,,,,,,,,,,,,,,,,,,,,,,,,,,18.13815370899829,18.145729874999233,18.145729874999233,22.885709792000853,space,4.726104459001363,None,,,,,,,,,,,,,,,,,,,,,,,,,,,,,,,,,,,,,,,,,,,,21049999,0,2025-10-17_11h19.50.555,tilt_mocs,2024.2.4,120.1062931082786,2025-10-17 11h19.58.011691 -0400,
-30,-60,left,0,0,0,,,,,100,left,1,1.1581594589988526,None,,,,,,,,,,,,,,0,0,0,0,,,,,22.89896187499835,,,,,,,,,,,,,,,,,,,,,,,,,24.0613859590012,24.069845334001002,25.554932833998464,25.562595958999736,,,,,,,,22.89350866699897,22.89896187499835,23.38353124999776,23.38353124999776,23.462255041999015,23.462255041999015,23.462255041999015,24.061271958998987,left,1,1.1581594589988526,None,,,,,,,,,,,,,,,,,,,,,,,,,,,,,,,,21049999,0,2025-10-17_11h19.50.555,tilt_mocs,2024.2.4,120.1062931082786,2025-10-17 11h19.58.011691 -0400,
-30,0,left,1,1,0,,,,,100,left,1,0.9856199589994503,None,,,,,,,,,,,,,,0,1,1,1,,,,,25.562595958999736,,,,,,,,,,,,,,,,,,,,,,,,,26.55643870899803,26.564964083998348,28.054945708998275,28.06209037499866,,,,,,,,25.556591708998894,25.562595958999736,26.06351816700044,26.06351816700044,26.13730279199808,26.13730279199808,26.13730279199808,26.556318374998227,left,1,0.9856199589994503,None,,,,,,,,,,,,,,,,,,,,,,,,,,,,,,,,21049999,0,2025-10-17_11h19.50.555,tilt_mocs,2024.2.4,120.1062931082786,2025-10-17 11h19.58.011691 -0400,
30,60,right,2,2,0,,,,,100,right,1,1.0385635000020557,None,,,,,,,,,,,,,,0,2,2,2,,,,,28.06209037499866,,,,,,,,,,,,,,,,,,,,,,,,,29.106148958999256,29.1145048340004,30.605409374999,30.61291912500019,,,,,,,,28.056555999999546,28.06209037499866,28.553954625000188,28.553954625000188,28.627255416999105,28.627255416999105,28.627255416999105,29.10603162500047,right,1,1.0385635000020557,None,,,,,,,,,,,,,,,,,,,,,,,,,,,,,,,,21049999,0,2025-10-17_11h19.50.555,tilt_mocs,2024.2.4,120.1062931082786,2025-10-17 11h19.58.011691 -0400,
30,0,right,3,3,0,,,,,100,right,1,0.9417976660006389,None,,,,,,,,,,,,,,0,3,3,3,,,,,30.61291912500019,,,,,,,,,,,,,,,,,,,,,,,,,31.557301374999952,31.56587420899814,33.05528241700085,33.063130292001006,,,,,,,,30.60707866699886,30.61291912500019,31.104037917000824,31.104037917000824,31.177206291999028,31.177206291999028,31.177206291999028,31.557168458999513,right,1,0.9417976660006389,None,,,,,,,,,,,,,,,,,,,,,,,,,,,,,,,,21049999,0,2025-10-17_11h19.50.555,tilt_mocs,2024.2.4,120.1062931082786,2025-10-17 11h19.58.011691 -0400,
-30,69,left,4,4,0,,,,,0,left,1,0.9092098330002045,None,,,,,,,,,,,,,,0,4,4,4,,,,,33.063130292001006,,,,,,,,,,,,,,,,,,,,,,,,,33.97984670900041,33.98837491700033,35.47193854199941,35.47995325000011,,,,,,,,33.05717200000072,33.063130292001006,33.554070375001174,33.554070375001174,33.627417458999844,33.627417458999844,33.627417458999844,33.979725000001054,left,1,0.9092098330002045,None,,,,,,,,,,,,,,,,,,,,,,,,,,,,,,,,21049999,0,2025-10-17_11h19.50.555,tilt_mocs,2024.2.4,120.1062931082786,2025-10-17 11h19.58.011691 -0400,
30,69,right,5,5,0,,,,,0,right,1,1.0180382079997798,None,,,,,,,,,,,,,,0,5,5,5,,,,,35.47995325000011,,,,,,,,,,,,,,,,,,,,,,,,,36.507008959000814,36.51587808399927,38.005287625001074,38.01343587500014,,,,,,,,35.47406370899989,35.47995325000011,35.98033145899899,35.98033145899899,36.05434454200076,36.05434454200076,36.05434454200076,36.506862124999316,right,1,1.0180382079997798,None,,,,,,,,,,,,,,,,,,,,,,,,,,,,,,,,21049999,0,2025-10-17_11h19.50.555,tilt_mocs,2024.2.4,120.1062931082786,2025-10-17 11h19.58.011691 -0400,
,,,,,,,,,,,,,,,,,,,,,,,,,,,,,,,,,,,,,,,,,,,,,,,,,,,,,,,,,,,,,,,,,,,,,,,,,,,,,,,,,,,,38.005480458999955,38.01343587500014,38.01343587500014,55.757663624997804,space,17.73319016700043,None,,,,,,,,,,,,,,,,,,,,,,,,,21049999,0,2025-10-17_11h19.50.555,tilt_mocs,2024.2.4,120.1062931082786,2025-10-17 11h19.58.011691 -0400,
2.4166666666666665,15.0,,0,0,0,,,,,,,,,,m2,poss,100,left,1.5782697499998903,None,None,,,,,,,,,,,0,0,0,46,55.80736474999867,,,,,,,,,,,,,,,,,,,,,,,,,,,,,,,,,,,,,,,,,,,,,,,,,,,,,,,55.80084908400022,55.80736474999867,56.271666833999916,56.271666833999916,56.344791542000166,56.344791542000166,57.391157334001036,left,1.5782697499998903,None,57.39132945899837,57.3914881669989,None,,,,,,,,,,,,21049999,0,2025-10-17_11h19.50.555,tilt_mocs,2024.2.4,120.1062931082786,2025-10-17 11h19.58.011691 -0400,
-0.2222222222222223,-15.0,,1,1,0,,,,,,,,,,p3,negs,100,right,1.0039745829999447,None,None,,,,,,,,,,,0,1,1,544,57.401983499999915,,,,,,,,,,,,,,,,,,,,,,,,,,,,,,,,,,,,,,,,,,,,,,,,,,,,,,,57.39407187499819,57.401983499999915,57.88843379199898,57.88843379199898,57.96086712499891,57.96086712499891,58.40863824999906,right,1.0039745829999447,None,58.408771124999475,58.40885150000031,None,,,,,,,,,,,,21049999,0,2025-10-17_11h19.50.555,tilt_mocs,2024.2.4,120.1062931082786,2025-10-17 11h19.58.011691 -0400,
-2.2777777777777777,-15.0,,2,2,0,,,,,,,,,,m2,negs,100,left,6.316392625001754,None,None,,,,,,,,,,,0,2,2,333,58.41933062499811,,,,,,,,,,,,,,,,,,,,,,,,,,,,,,,,,,,,,,,,,,,,,,,,,,,,,,,58.41103520899924,58.41933062499811,58.90491066699906,58.90491066699906,58.97725562499909,58.97725562499909,64.7414431670004,left,6.316392625001754,None,64.74160833399947,64.74166620899996,None,,,,,,,,,,,,21049999,0,2025-10-17_11h19.50.555,tilt_mocs,2024.2.4,120.1062931082786,2025-10-17 11h19.58.011691 -0400,
2.4166666666666665,15.0,,3,3,0,,,,,,,,,,m2,poss,100,left,1.1036319160011772,None,None,,,,,,,,,,,0,3,3,45,64.75280637499964,,,,,,,,,,,,,,,,,,,,,,,,,,,,,,,,,,,,,,,,,,,,,,,,,,,,,,,64.74460133399771,64.75280637499964,65.23857645899989,65.23857645899989,65.31135958400046,65.31135958400046,65.8679603749988,left,1.1036319160011772,None,65.86807537499772,65.86811758399926,None,,,,,,,,,,,,21049999,0,2025-10-17_11h19.50.555,tilt_mocs,2024.2.4,120.1062931082786,2025-10-17 11h19.58.011691 -0400,
3.4166666666666665,15.0,,4,4,0,,,,,,,,,,PSE,poss,100,left,0.971150083001703,None,None,,,,,,,,,,,0,4,4,121,65.87482766699759,,,,,,,,,,,,,,,,,,,,,,,,,,,,,,,,,,,,,,,,,,,,,,,,,,,,,,,65.8700846669999,65.87482766699759,66.36425516699819,66.36425516699819,66.43907266699898,66.43907266699898,66.85782941700018,left,0.971150083001703,None,66.85795874999894,66.8580123339998,None,,,,,,,,,,,,21049999,0,2025-10-17_11h19.50.555,tilt_mocs,2024.2.4,120.1062931082786,2025-10-17 11h19.58.011691 -0400,
4.916666666666666,15.0,,5,5,0,,,,,,,,,,p3,poss,100,right,1.343916583002283,None,None,,,,,,,,,,,0,5,5,277,66.86796949999916,,,,,,,,,,,,,,,,,,,,,,,,,,,,,,,,,,,,,,,,,,,,,,,,,,,,,,,66.8601211669993,66.86796949999916,67.35519354200005,67.35519354200005,67.42828104200089,67.42828104200089,68.22235549999823,right,1.343916583002283,None,68.22246445899873,68.22250733399778,None,,,,,,,,,,,,21049999,0,2025-10-17_11h19.50.555,tilt_mocs,2024.2.4,120.1062931082786,2025-10-17 11h19.58.011691 -0400,
1.222222222222222,0.0,,6,6,0,,,,,,,,,,PSE,noss,0,left,7.011103082997579,None,None,,,,,,,,,,,0,6,6,638,68.22987058400031,,,,,,,,,,,,,,,,,,,,,,,,,,,,,,,,,,,,,,,,,,,,,,,,,,,,,,,68.22449179199975,68.22987058400031,68.71393445899957,68.71393445899957,68.78919195900016,68.78919195900016,75.24755016699783,left,7.011103082997579,None,75.24769429200023,75.24774949999846,None,,,,,,,,,,,,21049999,0,2025-10-17_11h19.50.555,tilt_mocs,2024.2.4,120.1062931082786,2025-10-17 11h19.58.011691 -0400,
1.9166666666666663,15.0,,7,7,0,,,,,,,,,,m3,poss,100,left,1.1919127090004622,None,None,,,,,,,,,,,0,7,7,35,75.25856349999958,,,,,,,,,,,,,,,,,,,,,,,,,,,,,,,,,,,,,,,,,,,,,,,,,,,,,,,75.24994504200004,75.25856349999958,75.74788245899981,75.74788245899981,75.82283516700045,75.82283516700045,76.45926587500071,left,1.1919127090004622,None,76.45943320899823,76.45949279200067,None,,,,,,,,,,,,21049999,0,2025-10-17_11h19.50.555,tilt_mocs,2024.2.4,120.1062931082786,2025-10-17 11h19.58.011691 -0400,
-2.2777777777777777,-15.0,,8,8,0,,,,,,,,,,m2,negs,100,right,0.9809893339988776,None,None,,,,,,,,,,,0,8,8,344,76.47016145899761,,,,,,,,,,,,,,,,,,,,,,,,,,,,,,,,,,,,,,,,,,,,,,,,,,,,,,,76.4618187499982,76.47016145899761,76.95564399999785,76.95564399999785,77.0278514169986,77.0278514169986,77.45835162499861,right,0.9809893339988776,None,77.45848479199776,77.45853858400005,None,,,,,,,,,,,,21049999,0,2025-10-17_11h19.50.555,tilt_mocs,2024.2.4,120.1062931082786,2025-10-17 11h19.58.011691 -0400,
4.916666666666666,15.0,,9,9,0,,,,,,,,,,p3,poss,100,right,1.1496317500022997,None,None,,,,,,,,,,,0,9,9,255,77.46904008400088,,,,,,,,,,,,,,,,,,,,,,,,,,,,,,,,,,,,,,,,,,,,,,,,,,,,,,,77.460990167001,77.46904008400088,77.95569466699817,77.95569466699817,78.0277116670004,78.0277116670004,78.62470245900113,right,1.1496317500022997,None,78.624807917,78.62484970899823,None,,,,,,,,,,,,21049999,0,2025-10-17_11h19.50.555,tilt_mocs,2024.2.4,120.1062931082786,2025-10-17 11h19.58.011691 -0400,
-0.7777777777777777,-15.0,,10,10,0,,,,,,,,,,p1,negs,100,right,0.9677089590004471,None,None,,,,,,,,,,,0,10,10,445,78.6348059999982,,,,,,,,,,,,,,,,,,,,,,,,,,,,,,,,,,,,,,,,,,,,,,,,,,,,,,,78.6267713749985,78.6348059999982,79.12227274999896,79.12227274999896,79.19372654199833,79.19372654199833,79.60817937499814,right,0.9677089590004471,None,79.60828433400093,79.60832837499765,None,,,,,,,,,,,,21049999,0,2025-10-17_11h19.50.555,tilt_mocs,2024.2.4,120.1062931082786,2025-10-17 11h19.58.011691 -0400,
-1.2777777777777777,-15.0,,11,11,0,,,,,,,,,,PSE,negs,100,left,1.6228693749981176,None,None,,,,,,,,,,,0,11,11,432,79.61815983400083,,,,,,,,,,,,,,,,,,,,,,,,,,,,,,,,,,,,,,,,,,,,,,,,,,,,,,,79.61027429200112,79.61815983400083,80.1056810839982,80.1056810839982,80.17885537500115,80.17885537500115,81.24834233399815,left,1.6228693749981176,None,81.24847483399935,81.24853050000092,None,,,,,,,,,,,,21049999,0,2025-10-17_11h19.50.555,tilt_mocs,2024.2.4,120.1062931082786,2025-10-17 11h19.58.011691 -0400,
3.4166666666666665,15.0,,12,12,0,,,,,,,,,,PSE,poss,100,left,1.2474373750010272,None,None,,,,,,,,,,,0,12,12,126,81.25887154199881,,,,,,,,,,,,,,,,,,,,,,,,,,,,,,,,,,,,,,,,,,,,,,,,,,,,,,,81.25078145899897,81.25887154199881,81.7479564589994,81.7479564589994,81.82302545899802,81.82302545899802,82.50934070899893,left,1.2474373750010272,None,82.50948737499857,82.50954766699942,None,,,,,,,,,,,,21049999,0,2025-10-17_11h19.50.555,tilt_mocs,2024.2.4,120.1062931082786,2025-10-17 11h19.58.011691 -0400,
3.9166666666666665,15.0,,13,13,0,,,,,,,,,,p1,poss,100,left,1.5196044170006644,None,None,,,,,,,,,,,0,13,13,179,82.52012504199956,,,,,,,,,,,,,,,,,,,,,,,,,,,,,,,,,,,,,,,,,,,,,,,,,,,,,,,82.51173108399962,82.52012504199956,83.00578766699982,83.00578766699982,83.0781620839989,83.0781620839989,84.0426444170007,left,1.5196044170006644,None,84.04279083399888,84.04285333399821,None,,,,,,,,,,,,21049999,0,2025-10-17_11h19.50.555,tilt_mocs,2024.2.4,120.1062931082786,2025-10-17 11h19.58.011691 -0400,
-2.2777777777777777,-15.0,,14,14,0,,,,,,,,,,m2,negs,100,right,1.0760210000007646,None,None,,,,,,,,,,,0,14,14,337,84.05324012499841,,,,,,,,,,,,,,,,,,,,,,,,,,,,,,,,,,,,,,,,,,,,,,,,,,,,,,,84.04498808399876,84.05324012499841,84.53919049999968,84.53919049999968,84.61212437499853,84.61212437499853,85.14189316699776,right,1.0760210000007646,None,85.14202633400055,85.14208070899986,None,,,,,,,,,,,,21049999,0,2025-10-17_11h19.50.555,tilt_mocs,2024.2.4,120.1062931082786,2025-10-17 11h19.58.011691 -0400,
-0.7777777777777777,-15.0,,15,15,0,,,,,,,,,,p1,negs,100,left,1.187188124997192,None,None,,,,,,,,,,,0,15,15,469,85.15259795900056,,,,,,,,,,,,,,,,,,,,,,,,,,,,,,,,,,,,,,,,,,,,,,,,,,,,,,,85.1445206669996,85.15259795900056,85.6391621670009,85.6391621670009,85.71143920900067,85.71143920900067,86.34250091699869,left,1.187188124997192,None,86.34271024999907,86.34279908399913,None,,,,,,,,,,,,21049999,0,2025-10-17_11h19.50.555,tilt_mocs,2024.2.4,120.1062931082786,2025-10-17 11h19.58.011691 -0400,
2.4166666666666665,15.0,,16,16,0,,,,,,,,,,m2,poss,100,right,1.1066732500003127,None,None,,,,,,,,,,,0,16,16,72,86.3533693749996,,,,,,,,,,,,,,,,,,,,,,,,,,,,,,,,,,,,,,,,,,,,,,,,,,,,,,,86.34524012499969,86.3533693749996,86.83919770899956,86.83919770899956,86.91145124999821,86.91145124999821,87.4639419999985,right,1.1066732500003127,None,87.46407066699976,87.46411741699922,None,,,,,,,,,,,,21049999,0,2025-10-17_11h19.50.555,tilt_mocs,2024.2.4,120.1062931082786,2025-10-17 11h19.58.011691 -0400,
1.722222222222222,0.0,,17,17,0,,,,,,,,,,p1,noss,0,left,1.041897125000105,None,None,,,,,,,,,,,0,17,17,650,87.48946337500092,,,,,,,,,,,,,,,,,,,,,,,,,,,,,,,,,,,,,,,,,,,,,,,,,,,,,,,87.46603049999976,87.48946337500092,87.9652598749999,87.9652598749999,88.0398426669999,88.0398426669999,88.5410226669992,left,1.041897125000105,None,88.5411520839989,88.54120654199869,None,,,,,,,,,,,,21049999,0,2025-10-17_11h19.50.555,tilt_mocs,2024.2.4,120.1062931082786,2025-10-17 11h19.58.011691 -0400,
2.9166666666666665,15.0,,18,18,0,,,,,,,,,,m1,poss,100,right,1.1918052500004706,None,None,,,,,,,,,,,0,18,18,105,88.55122425000081,,,,,,,,,,,,,,,,,,,,,,,,,,,,,,,,,,,,,,,,,,,,,,,,,,,,,,,88.54334466699947,88.55122425000081,89.03935458399792,89.03935458399792,89.11244537499806,89.11244537499806,89.74726441700113,right,1.1918052500004706,None,89.74739179199969,89.74744500000088,None,,,,,,,,,,,,21049999,0,2025-10-17_11h19.50.555,tilt_mocs,2024.2.4,120.1062931082786,2025-10-17 11h19.58.011691 -0400,
2.9166666666666665,15.0,,19,19,0,,,,,,,,,,m1,poss,100,left,1.1479579580009158,None,None,,,,,,,,,,,0,19,19,101,89.77281562499775,,,,,,,,,,,,,,,,,,,,,,,,,,,,,,,,,,,,,,,,,,,,,,,,,,,,,,,89.74948374999803,89.77281562499775,90.24861929200051,90.24861929200051,90.32328837499881,90.32328837499881,90.92591004199858,left,1.1479579580009158,None,90.92602229199838,90.92606633399919,None,,,,,,,,,,,,21049999,0,2025-10-17_11h19.50.555,tilt_mocs,2024.2.4,120.1062931082786,2025-10-17 11h19.58.011691 -0400,
0.7222222222222221,0.0,,20,20,0,,,,,,,,,,m1,noss,0,left,1.3703114999989339,None,None,,,,,,,,,,,0,20,20,607,90.93635174999872,,,,,,,,,,,,,,,,,,,,,,,,,,,,,,,,,,,,,,,,,,,,,,,,,,,,,,,90.92802887499784,90.93635174999872,91.42280100000062,91.42280100000062,91.49482504199841,91.49482504199841,92.30923845899815,left,1.3703114999989339,None,92.30938487499952,92.30944304199875,None,,,,,,,,,,,,21049999,0,2025-10-17_11h19.50.555,tilt_mocs,2024.2.4,120.1062931082786,2025-10-17 11h19.58.011691 -0400,
2.7222222222222223,0.0,,21,21,0,,,,,,,,,,p3,noss,0,right,1.0482539579970762,None,None,,,,,,,,,,,0,21,21,698,92.3198287089981,,,,,,,,,,,,,,,,,,,,,,,,,,,,,,,,,,,,,,,,,,,,,,,,,,,,,,,92.31162283400045,92.3198287089981,92.80619520899927,92.80619520899927,92.87809008399927,92.87809008399927,93.37560433399995,right,1.0482539579970762,None,93.37573845899897,93.37579379199815,None,,,,,,,,,,,,21049999,0,2025-10-17_11h19.50.555,tilt_mocs,2024.2.4,120.1062931082786,2025-10-17 11h19.58.011691 -0400,
2.7222222222222223,0.0,,22,22,0,,,,,,,,,,p3,noss,0,right,1.2625764580006944,None,None,,,,,,,,,,,0,22,22,688,93.38679195900113,,,,,,,,,,,,,,,,,,,,,,,,,,,,,,,,,,,,,,,,,,,,,,,,,,,,,,,93.37825487499867,93.38679195900113,93.87280974999885,93.87280974999885,93.94477808399824,93.94477808399824,94.65857112500089,right,1.2625764580006944,None,94.65869208399818,94.65873474999898,None,,,,,,,,,,,,21049999,0,2025-10-17_11h19.50.555,tilt_mocs,2024.2.4,120.1062931082786,2025-10-17 11h19.58.011691 -0400,
2.7222222222222223,0.0,,23,23,0,,,,,,,,,,p3,noss,0,right,1.2778382079995936,None,None,,,,,,,,,,,0,23,23,695,94.66884383399884,,,,,,,,,,,,,,,,,,,,,,,,,,,,,,,,,,,,,,,,,,,,,,,,,,,,,,,94.66064204199938,94.66884383399884,95.15618083400113,95.15618083400113,95.2282753340005,95.2282753340005,95.95889187499779,right,1.2778382079995936,None,95.95902670899886,95.9590746670001,None,,,,,,,,,,,,21049999,0,2025-10-17_11h19.50.555,tilt_mocs,2024.2.4,120.1062931082786,2025-10-17 11h19.58.011691 -0400,
3.4166666666666665,15.0,,24,24,0,,,,,,,,,,PSE,poss,100,right,1.313253459000407,None,None,,,,,,,,,,,0,24,24,148,95.96914908399776,,,,,,,,,,,,,,,,,,,,,,,,,,,,,,,,,,,,,,,,,,,,,,,,,,,,,,,95.96125725000093,95.96914908399776,96.45622958400054,96.45622958400054,96.52924279199942,96.52924279199942,97.29247245900115,right,1.313253459000407,None,97.29260591699858,97.29266070900121,None,,,,,,,,,,,,21049999,0,2025-10-17_11h19.50.555,tilt_mocs,2024.2.4,120.1062931082786,2025-10-17 11h19.58.011691 -0400,
0.2222222222222221,0.0,,25,25,0,,,,,,,,,,m2,noss,0,left,1.1160991249998915,None,None,,,,,,,,,,,0,25,25,589,97.30342441700122,,,,,,,,,,,,,,,,,,,,,,,,,,,,,,,,,,,,,,,,,,,,,,,,,,,,,,,97.2951108749985,97.30342441700122,97.78965154199977,97.78965154199977,97.86187229200004,97.86187229200004,98.42549954199785,left,1.1160991249998915,None,98.42560508399765,98.42564841700005,None,,,,,,,,,,,,21049999,0,2025-10-17_11h19.50.555,tilt_mocs,2024.2.4,120.1062931082786,2025-10-17 11h19.58.011691 -0400,
-1.7777777777777777,-15.0,,26,26,0,,,,,,,,,,m1,negs,100,right,1.0411442090007768,None,None,,,,,,,,,,,0,26,26,399,98.43583141699855,,,,,,,,,,,,,,,,,,,,,,,,,,,,,,,,,,,,,,,,,,,,,,,,,,,,,,,98.4276060000011,98.43583141699855,98.9230534169983,98.9230534169983,98.99602820899963,98.99602820899963,99.48211354199884,right,1.0411442090007768,None,99.48223741699985,99.48229033399912,None,,,,,,,,,,,,21049999,0,2025-10-17_11h19.50.555,tilt_mocs,2024.2.4,120.1062931082786,2025-10-17 11h19.58.011691 -0400,
-0.2777777777777777,-15.0,,27,27,0,,,,,,,,,,p2,negs,100,left,1.191081666998798,None,None,,,,,,,,,,,0,27,27,517,99.4926209999976,,,,,,,,,,,,,,,,,,,,,,,,,,,,,,,,,,,,,,,,,,,,,,,,,,,,,,,99.48443045900058,99.4926209999976,99.98204691700084,99.98204691700084,100.05700599999909,100.05700599999909,100.69244033399809,left,1.191081666998798,None,100.69257520899919,100.69262179200086,None,,,,,,,,,,,,21049999,0,2025-10-17_11h19.50.555,tilt_mocs,2024.2.4,120.1062931082786,2025-10-17 11h19.58.011691 -0400,
-0.7777777777777777,-15.0,,28,28,0,,,,,,,,,,p1,negs,100,left,1.2177664170012577,None,None,,,,,,,,,,,0,28,28,473,100.70261625000057,,,,,,,,,,,,,,,,,,,,,,,,,,,,,,,,,,,,,,,,,,,,,,,,,,,,,,,100.6945799999994,100.70261625000057,101.18980924999778,101.18980924999778,101.26298729200062,101.26298729200062,101.92646099999911,left,1.2177664170012577,None,101.9266682919988,101.9267359589976,None,,,,,,,,,,,,21049999,0,2025-10-17_11h19.50.555,tilt_mocs,2024.2.4,120.1062931082786,2025-10-17 11h19.58.011691 -0400,
-1.7777777777777777,-15.0,,29,29,0,,,,,,,,,,m1,negs,100,left,1.6026441659996635,None,None,,,,,,,,,,,0,29,29,378,101.93823100000009,,,,,,,,,,,,,,,,,,,,,,,,,,,,,,,,,,,,,,,,,,,,,,,,,,,,,,,101.92965220900078,101.93823100000009,102.42324158399788,102.42324158399788,102.49538779199793,102.49538779199793,103.54342491699936,left,1.6026441659996635,None,103.54357162499946,103.5436299590001,None,,,,,,,,,,,,21049999,0,2025-10-17_11h19.50.555,tilt_mocs,2024.2.4,120.1062931082786,2025-10-17 11h19.58.011691 -0400,
4.916666666666666,15.0,,30,30,0,,,,,,,,,,p3,poss,100,right,1.1718943339983525,None,None,,,,,,,,,,,0,30,30,267,103.55437808399802,,,,,,,,,,,,,,,,,,,,,,,,,,,,,,,,,,,,,,,,,,,,,,,,,,,,,,,103.54607495899836,103.55437808399802,104.03987370899995,104.03987370899995,104.11193487499986,104.11193487499986,104.73076466699786,right,1.1718943339983525,None,104.7308667920006,104.73091225000098,None,,,,,,,,,,,,21049999,0,2025-10-17_11h19.50.555,tilt_mocs,2024.2.4,120.1062931082786,2025-10-17 11h19.58.011691 -0400,
4.916666666666666,15.0,,31,31,0,,,,,,,,,,p3,poss,100,right,1.3507143750030082,None,None,,,,,,,,,,,0,31,31,268,104.75678729200081,,,,,,,,,,,,,,,,,,,,,,,,,,,,,,,,,,,,,,,,,,,,,,,,,,,,,,,104.73287812499984,104.75678729200081,105.22335708399987,105.22335708399987,105.29673149999871,105.29673149999871,106.11048987499817,right,1.3507143750030082,None,106.11064674999943,106.11070416700022,None,,,,,,,,,,,,21049999,0,2025-10-17_11h19.50.555,tilt_mocs,2024.2.4,120.1062931082786,2025-10-17 11h19.58.011691 -0400,
2.9166666666666665,15.0,,32,32,0,,,,,,,,,,m1,poss,100,left,0.9359509169989906,None,None,,,,,,,,,,,0,32,32,107,106.12116437499935,,,,,,,,,,,,,,,,,,,,,,,,,,,,,,,,,,,,,,,,,,,,,,,,,,,,,,,106.11282500000016,106.12116437499935,106.60666091700114,106.60666091700114,106.67872266699851,106.67872266699851,107.05977070899826,left,0.9359509169989906,None,107.05992949999927,107.05999149999843,None,,,,,,,,,,,,21049999,0,2025-10-17_11h19.50.555,tilt_mocs,2024.2.4,120.1062931082786,2025-10-17 11h19.58.011691 -0400,
4.416666666666666,15.0,,33,33,0,,,,,,,,,,p2,poss,100,right,1.1166407919990888,None,None,,,,,,,,,,,0,33,33,208,107.07076337499893,,,,,,,,,,,,,,,,,,,,,,,,,,,,,,,,,,,,,,,,,,,,,,,,,,,,,,,107.06256520899842,107.07076337499893,107.55670970899882,107.55670970899882,107.62918716700005,107.62918716700005,108.19270204200075,right,1.1166407919990888,None,108.19283399999767,108.1928885419984,None,,,,,,,,,,,,21049999,0,2025-10-17_11h19.50.555,tilt_mocs,2024.2.4,120.1062931082786,2025-10-17 11h19.58.011691 -0400,
-1.7777777777777777,-15.0,,34,34,0,,,,,,,,,,m1,negs,100,left,1.297418917001778,None,None,,,,,,,,,,,0,34,34,390,108.203213959001,,,,,,,,,,,,,,,,,,,,,,,,,,,,,,,,,,,,,,,,,,,,,,,,,,,,,,,108.19511166699886,108.203213959001,108.69016520899822,108.69016520899822,108.76252445899809,108.76252445899809,109.50957691700023,left,1.297418917001778,None,109.5097335419996,109.50978441699772,None,,,,,,,,,,,,21049999,0,2025-10-17_11h19.50.555,tilt_mocs,2024.2.4,120.1062931082786,2025-10-17 11h19.58.011691 -0400,
1.9166666666666663,15.0,,35,35,0,,,,,,,,,,m3,poss,100,right,1.0324514579988318,None,None,,,,,,,,,,,0,35,35,9,109.52107070900092,,,,,,,,,,,,,,,,,,,,,,,,,,,,,,,,,,,,,,,,,,,,,,,,,,,,,,,109.51280725000106,109.52107070900092,110.00680370899863,110.00680370899863,110.07885949999763,110.07885949999763,110.55924491699989,right,1.0324514579988318,None,110.5593489999992,110.55939295899952,None,,,,,,,,,,,,21049999,0,2025-10-17_11h19.50.555,tilt_mocs,2024.2.4,120.1062931082786,2025-10-17 11h19.58.011691 -0400,
-1.2777777777777777,-15.0,,36,36,0,,,,,,,,,,PSE,negs,100,right,1.1490693339983409,None,None,,,,,,,,,,,0,36,36,404,110.56939087499995,,,,,,,,,,,,,,,,,,,,,,,,,,,,,,,,,,,,,,,,,,,,,,,,,,,,,,,110.56132966699806,110.56939087499995,111.05683270900045,111.05683270900045,111.12990412499857,111.12990412499857,111.72635741699924,right,1.1490693339983409,None,111.72653537500082,111.72658879200026,None,,,,,,,,,,,,21049999,0,2025-10-17_11h19.50.555,tilt_mocs,2024.2.4,120.1062931082786,2025-10-17 11h19.58.011691 -0400,
2.9166666666666665,15.0,,37,37,0,,,,,,,,,,m1,poss,100,left,0.9713911669969093,None,None,,,,,,,,,,,0,37,37,103,111.73768349999955,,,,,,,,,,,,,,,,,,,,,,,,,,,,,,,,,,,,,,,,,,,,,,,,,,,,,,,111.7295276670011,111.73768349999955,112.22362658400016,112.22362658400016,112.29536645899861,112.29536645899861,112.7148077089987,left,0.9713911669969093,None,112.71493158399971,112.71498608399997,None,,,,,,,,,,,,21049999,0,2025-10-17_11h19.50.555,tilt_mocs,2024.2.4,120.1062931082786,2025-10-17 11h19.58.011691 -0400,
2.4166666666666665,15.0,,38,38,0,,,,,,,,,,m2,poss,100,right,1.144427374998486,None,None,,,,,,,,,,,0,38,38,58,112.72526858399942,,,,,,,,,,,,,,,,,,,,,,,,,,,,,,,,,,,,,,,,,,,,,,,,,,,,,,,112.71730487500099,112.72526858399942,113.21624320900082,113.21624320900082,113.29076170899862,113.29076170899862,113.8765298340004,right,1.144427374998486,None,113.87666116699984,113.87671499999851,None,,,,,,,,,,,,21049999,0,2025-10-17_11h19.50.555,tilt_mocs,2024.2.4,120.1062931082786,2025-10-17 11h19.58.011691 -0400,
1.222222222222222,0.0,,39,39,0,,,,,,,,,,PSE,noss,0,right,1.380206082998484,None,None,,,,,,,,,,,0,39,39,627,113.88699104199986,,,,,,,,,,,,,,,,,,,,,,,,,,,,,,,,,,,,,,,,,,,,,,,,,,,,,,,113.8788948750007,113.88699104199986,114.37365745900024,114.37365745900024,114.44633274999796,114.44633274999796,115.27690266699938,right,1.380206082998484,None,115.2770411249985,115.27710283399938,None,,,,,,,,,,,,21049999,0,2025-10-17_11h19.50.555,tilt_mocs,2024.2.4,120.1062931082786,2025-10-17 11h19.58.011691 -0400,
-0.2777777777777777,-15.0,,40,40,0,,,,,,,,,,p2,negs,100,right,0.964119500000379,None,None,,,,,,,,,,,0,40,40,505,115.28763787500066,,,,,,,,,,,,,,,,,,,,,,,,,,,,,,,,,,,,,,,,,,,,,,,,,,,,,,,115.27926770900012,115.28763787500066,115.773616167,115.773616167,115.8465207090012,115.8465207090012,116.25974574999782,right,0.964119500000379,None,116.25989779199881,116.2599515840011,None,,,,,,,,,,,,21049999,0,2025-10-17_11h19.50.555,tilt_mocs,2024.2.4,120.1062931082786,2025-10-17 11h19.58.011691 -0400,
-0.2777777777777777,-15.0,,41,41,0,,,,,,,,,,p2,negs,100,right,0.9484978750006121,None,None,,,,,,,,,,,0,41,41,491,116.27091729200038,,,,,,,,,,,,,,,,,,,,,,,,,,,,,,,,,,,,,,,,,,,,,,,,,,,,,,,116.26256074999765,116.27091729200038,116.75700608400075,116.75700608400075,116.82923058400047,116.82923058400047,117.22652300000118,right,0.9484978750006121,None,117.22664870899825,117.22670195899991,None,,,,,,,,,,,,21049999,0,2025-10-17_11h19.50.555,tilt_mocs,2024.2.4,120.1062931082786,2025-10-17 11h19.58.011691 -0400,
-1.7777777777777777,-15.0,,42,42,0,,,,,,,,,,m1,negs,100,left,1.1306940829999803,None,None,,,,,,,,,,,0,42,42,368,117.23657908399764,,,,,,,,,,,,,,,,,,,,,,,,,,,,,,,,,,,,,,,,,,,,,,,,,,,,,,,117.2286735839989,117.23657908399764,117.72381166699779,117.72381166699779,117.79573770899879,117.79573770899879,118.37660454199795,left,1.1306940829999803,None,118.37676837500112,118.37682012499863,None,,,,,,,,,,,,21049999,0,2025-10-17_11h19.50.555,tilt_mocs,2024.2.4,120.1062931082786,2025-10-17 11h19.58.011691 -0400,
-1.2777777777777777,-15.0,,43,43,0,,,,,,,,,,PSE,negs,100,right,0.9902553749998333,None,None,,,,,,,,,,,0,43,43,434,118.38831108399972,,,,,,,,,,,,,,,,,,,,,,,,,,,,,,,,,,,,,,,,,,,,,,,,,,,,,,,118.37984366700039,118.38831108399972,118.87371712499953,118.87371712499953,118.9461650000012,118.9461650000012,119.38159120899945,right,0.9902553749998333,None,119.3817229999986,119.38177833399823,None,,,,,,,,,,,,21049999,0,2025-10-17_11h19.50.555,tilt_mocs,2024.2.4,120.1062931082786,2025-10-17 11h19.58.011691 -0400,
-0.2222222222222223,-15.0,,44,44,0,,,,,,,,,,p3,negs,100,right,1.2663023749992135,None,None,,,,,,,,,,,0,44,44,534,119.39249383399874,,,,,,,,,,,,,,,,,,,,,,,,,,,,,,,,,,,,,,,,,,,,,,,,,,,,,,,119.38413662499806,119.39249383399874,119.88372008399892,119.88372008399892,119.95760741699996,119.95760741699996,120.66508624999915,right,1.2663023749992135,None,120.66521229199861,120.66526658400107,None,,,,,,,,,,,,21049999,0,2025-10-17_11h19.50.555,tilt_mocs,2024.2.4,120.1062931082786,2025-10-17 11h19.58.011691 -0400,
0.2222222222222221,0.0,,45,45,0,,,,,,,,,,m2,noss,0,right,1.0361027079998166,None,None,,,,,,,,,,,0,45,45,580,120.67576604200076,,,,,,,,,,,,,,,,,,,,,,,,,,,,,,,,,,,,,,,,,,,,,,,,,,,,,,,120.66733079199912,120.67576604200076,121.16658966699833,121.16658966699833,121.24105374999999,121.24105374999999,121.71513729199796,right,1.0361027079998166,None,121.71524045899787,121.71528224999929,None,,,,,,,,,,,,21049999,0,2025-10-17_11h19.50.555,tilt_mocs,2024.2.4,120.1062931082786,2025-10-17 11h19.58.011691 -0400,
-1.2777777777777777,-15.0,,46,46,0,,,,,,,,,,PSE,negs,100,right,1.117232291999244,None,None,,,,,,,,,,,0,46,46,407,121.74070266700073,,,,,,,,,,,,,,,,,,,,,,,,,,,,,,,,,,,,,,,,,,,,,,,,,,,,,,,121.71719849999863,121.74070266700073,122.21585954200054,122.21585954200054,122.29090587500104,122.29090587500104,122.86046066699782,right,1.117232291999244,None,122.86060091699983,122.86065966699971,None,,,,,,,,,,,,21049999,0,2025-10-17_11h19.50.555,tilt_mocs,2024.2.4,120.1062931082786,2025-10-17 11h19.58.011691 -0400,
1.222222222222222,0.0,,47,47,0,,,,,,,,,,PSE,noss,0,right,1.088327917001152,None,None,,,,,,,,,,,0,47,47,626,122.87109970899837,,,,,,,,,,,,,,,,,,,,,,,,,,,,,,,,,,,,,,,,,,,,,,,,,,,,,,,122.86293091699918,122.87109970899837,123.35721687499972,123.35721687499972,123.42920975000015,123.42920975000015,123.96682204199897,right,1.088327917001152,None,123.96695308400012,123.96701879199827,None,,,,,,,,,,,,21049999,0,2025-10-17_11h19.50.555,tilt_mocs,2024.2.4,120.1062931082786,2025-10-17 11h19.58.011691 -0400,
-0.2777777777777777,-15.0,,48,48,0,,,,,,,,,,p2,negs,100,left,1.2311627080016478,None,None,,,,,,,,,,,0,48,48,508,123.97729829200034,,,,,,,,,,,,,,,,,,,,,,,,,,,,,,,,,,,,,,,,,,,,,,,,,,,,,,,123.96947224999894,123.97729829200034,124.46625608400063,124.46625608400063,124.54114245899837,124.54114245899837,125.21154787499836,left,1.2311627080016478,None,125.21170491700104,125.21176879199993,None,,,,,,,,,,,,21049999,0,2025-10-17_11h19.50.555,tilt_mocs,2024.2.4,120.1062931082786,2025-10-17 11h19.58.011691 -0400,
-1.7777777777777777,-15.0,,49,49,0,,,,,,,,,,m1,negs,100,right,1.0367566670029191,None,None,,,,,,,,,,,0,49,49,369,125.22215862499797,,,,,,,,,,,,,,,,,,,,,,,,,,,,,,,,,,,,,,,,,,,,,,,,,,,,,,,125.21398995900017,125.22215862499797,125.70742791700104,125.70742791700104,125.77965408399905,125.77965408399905,126.26987108399771,right,1.0367566670029191,None,126.26997475000098,126.2700176670005,None,,,,,,,,,,,,21049999,0,2025-10-17_11h19.50.555,tilt_mocs,2024.2.4,120.1062931082786,2025-10-17 11h19.58.011691 -0400,
0.7222222222222221,0.0,,50,50,0,,,,,,,,,,m1,noss,0,right,1.1154441250000673,None,None,,,,,,,,,,,0,50,50,601,126.27686658399762,,,,,,,,,,,,,,,,,,,,,,,,,,,,,,,,,,,,,,,,,,,,,,,,,,,,,,,126.27221391700004,126.27686658399762,126.76647304200014,126.76647304200014,126.84114858400062,126.84114858400062,127.40318333399773,right,1.1154441250000673,None,127.40328566699827,127.40332870899874,None,,,,,,,,,,,,21049999,0,2025-10-17_11h19.50.555,tilt_mocs,2024.2.4,120.1062931082786,2025-10-17 11h19.58.011691 -0400,
-0.2777777777777777,-15.0,,51,51,0,,,,,,,,,,p2,negs,100,left,1.04020862499965,None,None,,,,,,,,,,,0,51,51,502,127.40997516700008,,,,,,,,,,,,,,,,,,,,,,,,,,,,,,,,,,,,,,,,,,,,,,,,,,,,,,,127.4053028749986,127.40997516700008,127.90037433399993,127.90037433399993,127.97464845899958,127.97464845899958,128.46011429200007,left,1.04020862499965,None,128.4602460419992,128.4603008339982,None,,,,,,,,,,,,21049999,0,2025-10-17_11h19.50.555,tilt_mocs,2024.2.4,120.1062931082786,2025-10-17 11h19.58.011691 -0400,
-0.2777777777777777,-15.0,,52,52,0,,,,,,,,,,p2,negs,100,left,1.5044157080010336,None,None,,,,,,,,,,,0,52,52,484,128.47031620900088,,,,,,,,,,,,,,,,,,,,,,,,,,,,,,,,,,,,,,,,,,,,,,,,,,,,,,,128.46237754200047,128.47031620900088,128.95750995900016,128.95750995900016,129.03094862500075,129.03094862500075,129.9777596669992,left,1.5044157080010336,None,129.9779204999977,129.97798512499867,None,,,,,,,,,,,,21049999,0,2025-10-17_11h19.50.555,tilt_mocs,2024.2.4,120.1062931082786,2025-10-17 11h19.58.011691 -0400,
4.916666666666666,15.0,,53,53,0,,,,,,,,,,p3,poss,100,right,1.4437027919993852,None,None,,,,,,,,,,,0,53,53,275,129.98832324999967,,,,,,,,,,,,,,,,,,,,,,,,,,,,,,,,,,,,,,,,,,,,,,,,,,,,,,,129.98025416699966,129.98832324999967,130.4734864589991,130.4734864589991,130.5460134999994,130.5460134999994,131.4429197089994,right,1.4437027919993852,None,131.4430272089994,131.44307774999834,None,,,,,,,,,,,,21049999,0,2025-10-17_11h19.50.555,tilt_mocs,2024.2.4,120.1062931082786,2025-10-17 11h19.58.011691 -0400,
-0.7777777777777777,-15.0,,54,54,0,,,,,,,,,,p1,negs,100,left,0.9587092500005383,None,None,,,,,,,,,,,0,54,54,456,131.4504377919984,,,,,,,,,,,,,,,,,,,,,,,,,,,,,,,,,,,,,,,,,,,,,,,,,,,,,,,131.4450269170011,131.4504377919984,131.9407945419989,131.9407945419989,132.01361991700105,132.01361991700105,132.4194928750003,left,0.9587092500005383,None,132.41959258399947,132.4196364169984,None,,,,,,,,,,,,21049999,0,2025-10-17_11h19.50.555,tilt_mocs,2024.2.4,120.1062931082786,2025-10-17 11h19.58.011691 -0400,
1.722222222222222,0.0,,55,55,0,,,,,,,,,,p1,noss,0,right,1.1156840000003285,None,None,,,,,,,,,,,0,55,55,647,132.4268935,,,,,,,,,,,,,,,,,,,,,,,,,,,,,,,,,,,,,,,,,,,,,,,,,,,,,,,132.42156454200085,132.4268935,132.91637695899772,132.91637695899772,132.99146583399852,132.99146583399852,133.54883316699852,right,1.1156840000003285,None,133.5489334169979,133.54897645899837,None,,,,,,,,,,,,21049999,0,2025-10-17_11h19.50.555,tilt_mocs,2024.2.4,120.1062931082786,2025-10-17 11h19.58.011691 -0400,
-1.2777777777777777,-15.0,,56,56,0,,,,,,,,,,PSE,negs,100,left,1.038875874997757,None,None,,,,,,,,,,,0,56,56,405,133.574444124999,,,,,,,,,,,,,,,,,,,,,,,,,,,,,,,,,,,,,,,,,,,,,,,,,,,,,,,133.55087424999874,133.574444124999,134.05003387499892,134.05003387499892,134.1248615000004,134.1248615000004,134.61588779199883,left,1.038875874997757,None,134.61599333399863,134.6160364999996,None,,,,,,,,,,,,21049999,0,2025-10-17_11h19.50.555,tilt_mocs,2024.2.4,120.1062931082786,2025-10-17 11h19.58.011691 -0400,
4.916666666666666,15.0,,57,57,0,,,,,,,,,,p3,poss,100,right,0.9964405419996183,None,None,,,,,,,,,,,0,57,57,272,134.62614108399794,,,,,,,,,,,,,,,,,,,,,,,,,,,,,,,,,,,,,,,,,,,,,,,,,,,,,,,134.6179410420009,134.62614108399794,135.1170674169989,135.1170674169989,135.19156016700072,135.19156016700072,135.62753637499918,right,0.9964405419996183,None,135.6276837919977,135.62774424999952,None,,,,,,,,,,,,21049999,0,2025-10-17_11h19.50.555,tilt_mocs,2024.2.4,120.1062931082786,2025-10-17 11h19.58.011691 -0400,
4.416666666666666,15.0,,58,58,0,,,,,,,,,,p2,poss,100,right,1.1489972909985227,None,None,,,,,,,,,,,0,58,58,213,135.63822212499872,,,,,,,,,,,,,,,,,,,,,,,,,,,,,,,,,,,,,,,,,,,,,,,,,,,,,,,135.62999616700108,135.63822212499872,136.12430433400004,136.12430433400004,136.19630929199775,136.19630929199775,136.79377866700088,right,1.1489972909985227,None,136.7939390419997,136.79399279199788,None,,,,,,,,,,,,21049999,0,2025-10-17_11h19.50.555,tilt_mocs,2024.2.4,120.1062931082786,2025-10-17 11h19.58.011691 -0400,
3.4166666666666665,15.0,,59,59,0,,,,,,,,,,PSE,poss,100,left,1.0138697080001293,None,None,,,,,,,,,,,0,59,59,120,136.80490204200032,,,,,,,,,,,,,,,,,,,,,,,,,,,,,,,,,,,,,,,,,,,,,,,,,,,,,,,136.79663375000018,136.80490204200032,137.29106491700077,137.29106491700077,137.3633883750008,137.3633883750008,137.82735783399767,left,1.0138697080001293,None,137.82759483399786,137.82768299999952,None,,,,,,,,,,,,21049999,0,2025-10-17_11h19.50.555,tilt_mocs,2024.2.4,120.1062931082786,2025-10-17 11h19.58.011691 -0400,
4.416666666666666,15.0,,60,60,0,,,,,,,,,,p2,poss,100,right,1.1042139170021983,None,None,,,,,,,,,,,0,60,60,211,137.83782150000116,,,,,,,,,,,,,,,,,,,,,,,,,,,,,,,,,,,,,,,,,,,,,,,,,,,,,,,137.83011154199994,137.83782150000116,138.3245135420002,138.3245135420002,138.3969872919988,138.3969872919988,138.94462670899884,right,1.1042139170021983,None,138.9447545840012,138.94480970899895,None,,,,,,,,,,,,21049999,0,2025-10-17_11h19.50.555,tilt_mocs,2024.2.4,120.1062931082786,2025-10-17 11h19.58.011691 -0400,
0.2222222222222221,0.0,,61,61,0,,,,,,,,,,m2,noss,0,right,1.3528875410011096,None,None,,,,,,,,,,,0,61,61,592,138.9553632089992,,,,,,,,,,,,,,,,,,,,,,,,,,,,,,,,,,,,,,,,,,,,,,,,,,,,,,,138.94720745900122,138.9553632089992,139.441151084,139.441151084,139.51309150000088,139.51309150000088,140.31096670899933,right,1.3528875410011096,None,140.31111079199763,140.31117508399984,None,,,,,,,,,,,,21049999,0,2025-10-17_11h19.50.555,tilt_mocs,2024.2.4,120.1062931082786,2025-10-17 11h19.58.011691 -0400,
3.4166666666666665,15.0,,62,62,0,,,,,,,,,,PSE,poss,100,right,1.2576233750005485,None,None,,,,,,,,,,,0,62,62,129,140.32165612500103,,,,,,,,,,,,,,,,,,,,,,,,,,,,,,,,,,,,,,,,,,,,,,,,,,,,,,,140.31337004200032,140.32165612500103,140.80722125000102,140.80722125000102,140.88106158400115,140.88106158400115,141.5828529169994,right,1.2576233750005485,None,141.58297733400104,141.58303066699955,None,,,,,,,,,,,,21049999,0,2025-10-17_11h19.50.555,tilt_mocs,2024.2.4,120.1062931082786,2025-10-17 11h19.58.011691 -0400,
0.7222222222222221,0.0,,63,63,0,,,,,,,,,,m1,noss,0,left,1.283958874999371,None,None,,,,,,,,,,,0,63,63,608,141.59382537499914,,,,,,,,,,,,,,,,,,,,,,,,,,,,,,,,,,,,,,,,,,,,,,,,,,,,,,,141.58558875000017,141.59382537499914,142.08321087500008,142.08321087500008,142.1584428749993,142.1584428749993,142.8824479169998,left,1.283958874999371,None,142.8825754999998,142.88263295900106,None,,,,,,,,,,,,21049999,0,2025-10-17_11h19.50.555,tilt_mocs,2024.2.4,120.1062931082786,2025-10-17 11h19.58.011691 -0400,
-2.7777777777777777,-15.0,,64,64,0,,,,,,,,,,m3,negs,100,left,1.0439307499982533,None,None,,,,,,,,,,,0,64,64,299,142.8935589169996,,,,,,,,,,,,,,,,,,,,,,,,,,,,,,,,,,,,,,,,,,,,,,,,,,,,,,,142.88478045900047,142.8935589169996,143.38349862500036,143.38349862500036,143.45846758399784,143.45846758399784,143.9439126670004,left,1.0439307499982533,None,143.94402249999985,143.9440664169997,None,,,,,,,,,,,,21049999,0,2025-10-17_11h19.50.555,tilt_mocs,2024.2.4,120.1062931082786,2025-10-17 11h19.58.011691 -0400,
1.9166666666666663,15.0,,65,65,0,,,,,,,,,,m3,poss,100,left,1.0291895420014043,None,None,,,,,,,,,,,0,65,65,23,143.95397945899822,,,,,,,,,,,,,,,,,,,,,,,,,,,,,,,,,,,,,,,,,,,,,,,,,,,,,,,143.9459823340003,143.95397945899822,144.4412547920001,144.4412547920001,144.51368183399973,144.51368183399973,144.9940496249983,left,1.0291895420014043,None,144.99416233399825,144.99420383399774,None,,,,,,,,,,,,21049999,0,2025-10-17_11h19.50.555,tilt_mocs,2024.2.4,120.1062931082786,2025-10-17 11h19.58.011691 -0400,
1.722222222222222,0.0,,66,66,0,,,,,,,,,,p1,noss,0,left,1.2634241249979823,None,None,,,,,,,,,,,0,66,66,646,145.00399358399955,,,,,,,,,,,,,,,,,,,,,,,,,,,,,,,,,,,,,,,,,,,,,,,,,,,,,,,144.9961335420012,145.00399358399955,145.4904474169998,145.4904474169998,145.56300420899788,145.56300420899788,146.27735424999992,left,1.2634241249979823,None,146.27745929199955,146.27750204199765,None,,,,,,,,,,,,21049999,0,2025-10-17_11h19.50.555,tilt_mocs,2024.2.4,120.1062931082786,2025-10-17 11h19.58.011691 -0400,
-0.2222222222222223,-15.0,,67,67,0,,,,,,,,,,p3,negs,100,left,1.3815412919975643,None,None,,,,,,,,,,,0,67,67,522,146.28736437499902,,,,,,,,,,,,,,,,,,,,,,,,,,,,,,,,,,,,,,,,,,,,,,,,,,,,,,,146.27943058399978,146.28736437499902,146.7749350419981,146.7749350419981,146.8471574590003,146.8471574590003,147.6776142919989,left,1.3815412919975643,None,147.67777945899797,147.6778371670007,None,,,,,,,,,,,,21049999,0,2025-10-17_11h19.50.555,tilt_mocs,2024.2.4,120.1062931082786,2025-10-17 11h19.58.011691 -0400,
-2.7777777777777777,-15.0,,68,68,0,,,,,,,,,,m3,negs,100,left,1.1099458749995392,None,None,,,,,,,,,,,0,68,68,318,147.688726417,,,,,,,,,,,,,,,,,,,,,,,,,,,,,,,,,,,,,,,,,,,,,,,,,,,,,,,147.68055883399938,147.688726417,148.1748136669994,148.1748136669994,148.2476085419985,148.2476085419985,148.80146999999852,left,1.1099458749995392,None,148.80163716699826,148.80169341700093,None,,,,,,,,,,,,21049999,0,2025-10-17_11h19.50.555,tilt_mocs,2024.2.4,120.1062931082786,2025-10-17 11h19.58.011691 -0400,
2.2222222222222223,0.0,,69,69,0,,,,,,,,,,p2,noss,0,right,1.0813255419998313,None,None,,,,,,,,,,,0,69,69,675,148.81179658399924,,,,,,,,,,,,,,,,,,,,,,,,,,,,,,,,,,,,,,,,,,,,,,,,,,,,,,,148.8042504590012,148.81179658399924,149.3005590419998,149.3005590419998,149.37560191699959,149.37560191699959,149.89934625000024,right,1.0813255419998313,None,149.89944724999805,149.89948979199835,None,,,,,,,,,,,,21049999,0,2025-10-17_11h19.50.555,tilt_mocs,2024.2.4,120.1062931082786,2025-10-17 11h19.58.011691 -0400,
-0.2777777777777777,-15.0,,70,70,0,,,,,,,,,,p2,negs,100,left,0.9853478750010254,None,None,,,,,,,,,,,0,70,70,488,149.92505820899896,,,,,,,,,,,,,,,,,,,,,,,,,,,,,,,,,,,,,,,,,,,,,,,,,,,,,,,149.90142320900122,149.92505820899896,150.4006405,150.4006405,150.47566449999795,150.47566449999795,150.91677708399948,left,0.9853478750010254,None,150.91691054200055,150.9169658339997,None,,,,,,,,,,,,21049999,0,2025-10-17_11h19.50.555,tilt_mocs,2024.2.4,120.1062931082786,2025-10-17 11h19.58.011691 -0400,
-1.2777777777777777,-15.0,,71,71,0,,,,,,,,,,PSE,negs,100,right,1.1698590830019384,None,None,,,,,,,,,,,0,71,71,431,150.9273319169988,,,,,,,,,,,,,,,,,,,,,,,,,,,,,,,,,,,,,,,,,,,,,,,,,,,,,,,150.91891345899785,150.9273319169988,151.41708624999956,151.41708624999956,151.49215695900057,151.49215695900057,152.1008397500009,right,1.1698590830019384,None,152.1009637499992,152.10101874999964,None,,,,,,,,,,,,21049999,0,2025-10-17_11h19.50.555,tilt_mocs,2024.2.4,120.1062931082786,2025-10-17 11h19.58.011691 -0400,
1.722222222222222,0.0,,72,72,0,,,,,,,,,,p1,noss,0,right,1.0850064170008409,None,None,,,,,,,,,,,0,72,72,653,152.11121591700066,,,,,,,,,,,,,,,,,,,,,,,,,,,,,,,,,,,,,,,,,,,,,,,,,,,,,,,152.10300383399954,152.11121591700066,152.60048308399928,152.60048308399928,152.67547654200098,152.67547654200098,153.20034725000005,right,1.0850064170008409,None,153.20044929199867,153.20049270899835,None,,,,,,,,,,,,21049999,0,2025-10-17_11h19.50.555,tilt_mocs,2024.2.4,120.1062931082786,2025-10-17 11h19.58.011691 -0400,
2.9166666666666665,15.0,,73,73,0,,,,,,,,,,m1,poss,100,right,1.073043125001277,None,None,,,,,,,,,,,0,73,73,112,153.21093549999932,,,,,,,,,,,,,,,,,,,,,,,,,,,,,,,,,,,,,,,,,,,,,,,,,,,,,,,153.20239112499985,153.21093549999932,153.70049058400036,153.70049058400036,153.77582695899764,153.77582695899764,154.29468049999923,right,1.073043125001277,None,154.29480474999946,154.29485924999972,None,,,,,,,,,,,,21049999,0,2025-10-17_11h19.50.555,tilt_mocs,2024.2.4,120.1062931082786,2025-10-17 11h19.58.011691 -0400,
0.2777777777777779,0.0,,74,74,0,,,,,,,,,,m3,noss,0,right,0.9368415409990121,None,None,,,,,,,,,,,0,74,74,569,154.3049932920003,,,,,,,,,,,,,,,,,,,,,,,,,,,,,,,,,,,,,,,,,,,,,,,,,,,,,,,154.29680158399788,154.3049932920003,154.7917930420008,154.7917930420008,154.86375704199963,154.86375704199963,155.24434016699888,right,0.9368415409990121,None,155.24446850000095,155.24452970899802,None,,,,,,,,,,,,21049999,0,2025-10-17_11h19.50.555,tilt_mocs,2024.2.4,120.1062931082786,2025-10-17 11h19.58.011691 -0400,
1.9166666666666663,15.0,,75,75,0,,,,,,,,,,m3,poss,100,left,1.0681538749995525,None,None,,,,,,,,,,,0,75,75,30,155.25468270900092,,,,,,,,,,,,,,,,,,,,,,,,,,,,,,,,,,,,,,,,,,,,,,,,,,,,,,,155.2467117089982,155.25468270900092,155.74179362499854,155.74179362499854,155.81404604199997,155.81404604199997,156.32765708399893,left,1.0681538749995525,None,156.32775783399848,156.3278006670007,None,,,,,,,,,,,,21049999,0,2025-10-17_11h19.50.555,tilt_mocs,2024.2.4,120.1062931082786,2025-10-17 11h19.58.011691 -0400,
-0.7777777777777777,-15.0,,76,76,0,,,,,,,,,,p1,negs,100,right,0.9879233750034473,None,None,,,,,,,,,,,0,76,76,446,156.33769279199987,,,,,,,,,,,,,,,,,,,,,,,,,,,,,,,,,,,,,,,,,,,,,,,,,,,,,,,156.3297395419977,156.33769279199987,156.82512275000045,156.82512275000045,156.8972901249981,156.8972901249981,157.3282605839995,right,0.9879233750034473,None,157.3285229590001,157.32863383400036,None,,,,,,,,,,,,21049999,0,2025-10-17_11h19.50.555,tilt_mocs,2024.2.4,120.1062931082786,2025-10-17 11h19.58.011691 -0400,
-0.2222222222222223,-15.0,,77,77,0,,,,,,,,,,p3,negs,100,left,1.146743332999904,None,None,,,,,,,,,,,0,77,77,525,157.3391664999981,,,,,,,,,,,,,,,,,,,,,,,,,,,,,,,,,,,,,,,,,,,,,,,,,,,,,,,157.33109358399815,157.3391664999981,157.82526258399957,157.82526258399957,157.89807670899972,157.89807670899972,158.49535749999995,left,1.146743332999904,None,158.49550883399934,158.49556599999778,None,,,,,,,,,,,,21049999,0,2025-10-17_11h19.50.555,tilt_mocs,2024.2.4,120.1062931082786,2025-10-17 11h19.58.011691 -0400,
2.4166666666666665,15.0,,78,78,0,,,,,,,,,,m2,poss,100,left,1.3211244590020215,None,None,,,,,,,,,,,0,78,78,71,158.50567620899892,,,,,,,,,,,,,,,,,,,,,,,,,,,,,,,,,,,,,,,,,,,,,,,,,,,,,,,158.49770524999985,158.50567620899892,158.9918113749991,158.9918113749991,159.0641516249998,159.0641516249998,159.83796549999897,left,1.3211244590020215,None,159.8380653339991,159.83810854200055,None,,,,,,,,,,,,21049999,0,2025-10-17_11h19.50.555,tilt_mocs,2024.2.4,120.1062931082786,2025-10-17 11h19.58.011691 -0400,
2.9166666666666665,15.0,,79,79,0,,,,,,,,,,m1,poss,100,left,1.1379307079987484,None,None,,,,,,,,,,,0,79,79,85,159.8447950000009,,,,,,,,,,,,,,,,,,,,,,,,,,,,,,,,,,,,,,,,,,,,,,,,,,,,,,,159.84004124999774,159.8447950000009,160.33413362499778,160.33413362499778,160.40909391699824,160.40909391699824,160.99489695900047,left,1.1379307079987484,None,160.99505683399912,160.9951098749989,None,,,,,,,,,,,,21049999,0,2025-10-17_11h19.50.555,tilt_mocs,2024.2.4,120.1062931082786,2025-10-17 11h19.58.011691 -0400,
-2.7777777777777777,-15.0,,80,80,0,,,,,,,,,,m3,negs,100,left,1.0702334579982562,None,None,,,,,,,,,,,0,80,80,312,161.00635070899807,,,,,,,,,,,,,,,,,,,,,,,,,,,,,,,,,,,,,,,,,,,,,,,,,,,,,,,160.9981668750006,161.00635070899807,161.49199374999807,161.49199374999807,161.56353749999835,161.56353749999835,162.08758212500106,left,1.0702334579982562,None,162.08768087499993,162.08772354200119,None,,,,,,,,,,,,21049999,0,2025-10-17_11h19.50.555,tilt_mocs,2024.2.4,120.1062931082786,2025-10-17 11h19.58.011691 -0400,
4.916666666666666,15.0,,81,81,0,,,,,,,,,,p3,poss,100,right,1.193825916001515,None,None,,,,,,,,,,,0,81,81,271,162.09489304199815,,,,,,,,,,,,,,,,,,,,,,,,,,,,,,,,,,,,,,,,,,,,,,,,,,,,,,,162.0896661250008,162.09489304199815,162.58478470900081,162.58478470900081,162.6591542089991,162.6591542089991,163.2947710419976,right,1.193825916001515,None,163.29489495899907,163.29494949999935,None,,,,,,,,,,,,21049999,0,2025-10-17_11h19.50.555,tilt_mocs,2024.2.4,120.1062931082786,2025-10-17 11h19.58.011691 -0400,
-2.2777777777777777,-15.0,,82,82,0,,,,,,,,,,m2,negs,100,left,1.6667951249983162,None,None,,,,,,,,,,,0,82,82,326,163.30521316700106,,,,,,,,,,,,,,,,,,,,,,,,,,,,,,,,,,,,,,,,,,,,,,,,,,,,,,,163.29722050000055,163.30521316700106,163.7920095419977,163.7920095419977,163.86400804200093,163.86400804200093,164.97885008400044,left,1.6667951249983162,None,164.97899574999974,164.97905712499778,None,,,,,,,,,,,,21049999,0,2025-10-17_11h19.50.555,tilt_mocs,2024.2.4,120.1062931082786,2025-10-17 11h19.58.011691 -0400,
-2.2777777777777777,-15.0,,83,83,0,,,,,,,,,,m2,negs,100,right,1.0707342089990561,None,None,,,,,,,,,,,0,83,83,323,164.98997637499997,,,,,,,,,,,,,,,,,,,,,,,,,,,,,,,,,,,,,,,,,,,,,,,,,,,,,,,164.9816353339993,164.98997637499997,165.47549137500027,165.47549137500027,165.5476781670004,165.5476781670004,166.06671258400092,right,1.0707342089990561,None,166.0668425420008,166.06689791700046,None,,,,,,,,,,,,21049999,0,2025-10-17_11h19.50.555,tilt_mocs,2024.2.4,120.1062931082786,2025-10-17 11h19.58.011691 -0400,
-2.7777777777777777,-15.0,,84,84,0,,,,,,,,,,m3,negs,100,left,1.0762094160018023,None,None,,,,,,,,,,,0,84,84,290,166.07723733400053,,,,,,,,,,,,,,,,,,,,,,,,,,,,,,,,,,,,,,,,,,,,,,,,,,,,,,,166.06905941700097,166.07723733400053,166.56794995900054,166.56794995900054,166.6425357090011,166.6425357090011,167.16145562499878,left,1.0762094160018023,None,167.16160641700117,167.16166783399967,None,,,,,,,,,,,,21049999,0,2025-10-17_11h19.50.555,tilt_mocs,2024.2.4,120.1062931082786,2025-10-17 11h19.58.011691 -0400,
3.4166666666666665,15.0,,85,85,0,,,,,,,,,,PSE,poss,100,right,1.386459332999948,None,None,,,,,,,,,,,0,85,85,127,167.17275804200108,,,,,,,,,,,,,,,,,,,,,,,,,,,,,,,,,,,,,,,,,,,,,,,,,,,,,,,167.1644481250005,167.17275804200108,167.65887291699983,167.65887291699983,167.7309532500003,167.7309532500003,168.5621571249976,right,1.386459332999948,None,168.56230558400057,168.5623635419979,None,,,,,,,,,,,,21049999,0,2025-10-17_11h19.50.555,tilt_mocs,2024.2.4,120.1062931082786,2025-10-17 11h19.58.011691 -0400,
4.916666666666666,15.0,,86,86,0,,,,,,,,,,p3,poss,100,right,1.0221512499992969,None,None,,,,,,,,,,,0,86,86,250,168.57264995899823,,,,,,,,,,,,,,,,,,,,,,,,,,,,,,,,,,,,,,,,,,,,,,,,,,,,,,,168.5643936669985,168.57264995899823,169.0591534999985,169.0591534999985,169.13134683399767,169.13134683399767,169.59977158399852,right,1.0221512499992969,None,169.59987354199984,169.59991591699873,None,,,,,,,,,,,,21049999,0,2025-10-17_11h19.50.555,tilt_mocs,2024.2.4,120.1062931082786,2025-10-17 11h19.58.011691 -0400,
-2.2777777777777777,-15.0,,87,87,0,,,,,,,,,,m2,negs,100,left,1.0692414160002954,None,None,,,,,,,,,,,0,87,87,330,169.62567158399906,,,,,,,,,,,,,,,,,,,,,,,,,,,,,,,,,,,,,,,,,,,,,,,,,,,,,,,169.60182429199995,169.62567158399906,170.10094424999988,170.10094424999988,170.1761577920006,170.1761577920006,170.70116920899818,left,1.0692414160002954,None,170.7012959169988,170.701350542,None,,,,,,,,,,,,21049999,0,2025-10-17_11h19.50.555,tilt_mocs,2024.2.4,120.1062931082786,2025-10-17 11h19.58.011691 -0400,
2.9166666666666665,15.0,,88,88,0,,,,,,,,,,m1,poss,100,left,1.7997600829985458,None,None,,,,,,,,,,,0,88,88,88,170.71187804199872,,,,,,,,,,,,,,,,,,,,,,,,,,,,,,,,,,,,,,,,,,,,,,,,,,,,,,,170.70369295899945,170.71187804199872,171.20204625000042,171.20204625000042,171.27619291700103,171.27619291700103,172.51784899999984,left,1.7997600829985458,None,172.51797704199998,172.51803362499777,None,,,,,,,,,,,,21049999,0,2025-10-17_11h19.50.555,tilt_mocs,2024.2.4,120.1062931082786,2025-10-17 11h19.58.011691 -0400,
-1.2777777777777777,-15.0,,89,89,0,,,,,,,,,,PSE,negs,100,right,0.9650469580010395,None,None,,,,,,,,,,,0,89,89,403,172.528515375001,,,,,,,,,,,,,,,,,,,,,,,,,,,,,,,,,,,,,,,,,,,,,,,,,,,,,,,172.52017520899972,172.528515375001,173.01797491699836,173.01797491699836,173.09297458400033,173.09297458400033,173.496173042,right,0.9650469580010395,None,173.4963000839998,173.49635529199804,None,,,,,,,,,,,,21049999,0,2025-10-17_11h19.50.555,tilt_mocs,2024.2.4,120.1062931082786,2025-10-17 11h19.58.011691 -0400,
-1.2777777777777777,-15.0,,90,90,0,,,,,,,,,,PSE,negs,100,right,1.1029314579973288,None,None,,,,,,,,,,,0,90,90,410,173.5068549589996,,,,,,,,,,,,,,,,,,,,,,,,,,,,,,,,,,,,,,,,,,,,,,,,,,,,,,,173.49877829199977,173.5068549589996,173.992567917001,173.992567917001,174.06491845900018,174.06491845900018,174.61238924999998,right,1.1029314579973288,None,174.61254687499968,174.6126058339978,None,,,,,,,,,,,,21049999,0,2025-10-17_11h19.50.555,tilt_mocs,2024.2.4,120.1062931082786,2025-10-17 11h19.58.011691 -0400,
0.2222222222222221,0.0,,91,91,0,,,,,,,,,,m2,noss,0,right,1.0664926249992277,None,None,,,,,,,,,,,0,91,91,594,174.62352525000097,,,,,,,,,,,,,,,,,,,,,,,,,,,,,,,,,,,,,,,,,,,,,,,,,,,,,,,174.61526145899916,174.62352525000097,175.10914433400103,175.10914433400103,175.18217037499926,175.18217037499926,175.6953156669988,right,1.0664926249992277,None,175.69544020899775,175.69549379199816,None,,,,,,,,,,,,21049999,0,2025-10-17_11h19.50.555,tilt_mocs,2024.2.4,120.1062931082786,2025-10-17 11h19.58.011691 -0400,
3.9166666666666665,15.0,,92,92,0,,,,,,,,,,p1,poss,100,left,0.8548442920000525,None,None,,,,,,,,,,,0,92,92,182,175.70537875000082,,,,,,,,,,,,,,,,,,,,,,,,,,,,,,,,,,,,,,,,,,,,,,,,,,,,,,,175.69746524999937,175.70537875000082,176.19274858399876,176.19274858399876,176.26495462499952,176.26495462499952,176.5632708339981,left,0.8548442920000525,None,176.5634182089998,176.5634746249998,None,,,,,,,,,,,,21049999,0,2025-10-17_11h19.50.555,tilt_mocs,2024.2.4,120.1062931082786,2025-10-17 11h19.58.011691 -0400,
1.722222222222222,0.0,,93,93,0,,,,,,,,,,p1,noss,0,right,0.7530837089980196,None,None,,,,,,,,,,,0,93,93,655,176.57382874999894,,,,,,,,,,,,,,,,,,,,,,,,,,,,,,,,,,,,,,,,,,,,,,,,,,,,,,,176.5655200000001,176.57382874999894,177.05927762499778,177.05927762499778,177.13244316700002,177.13244316700002,177.32944724999834,right,0.7530837089980196,None,177.3295812920005,177.3296481670004,None,,,,,,,,,,,,21049999,0,2025-10-17_11h19.50.555,tilt_mocs,2024.2.4,120.1062931082786,2025-10-17 11h19.58.011691 -0400,
1.222222222222222,0.0,,94,94,0,,,,,,,,,,PSE,noss,0,right,1.1368047920004756,None,None,,,,,,,,,,,0,94,94,624,177.33984516700002,,,,,,,,,,,,,,,,,,,,,,,,,,,,,,,,,,,,,,,,,,,,,,,,,,,,,,,177.3319354999985,177.33984516700002,177.82589354199808,177.82589354199808,177.89848404199802,177.89848404199802,178.4792426669992,right,1.1368047920004756,None,178.47937841699968,178.479435792,None,,,,,,,,,,,,21049999,0,2025-10-17_11h19.50.555,tilt_mocs,2024.2.4,120.1062931082786,2025-10-17 11h19.58.011691 -0400,
-0.2222222222222223,-15.0,,95,95,0,,,,,,,,,,p3,negs,100,right,0.9935929579987715,None,None,,,,,,,,,,,0,95,95,546,178.48945449999883,,,,,,,,,,,,,,,,,,,,,,,,,,,,,,,,,,,,,,,,,,,,,,,,,,,,,,,178.481489875001,178.48945449999883,178.97587395899973,178.97587395899973,179.04856341699997,179.04856341699997,179.48573079199923,right,0.9935929579987715,None,179.4858592499986,179.48591316699822,None,,,,,,,,,,,,21049999,0,2025-10-17_11h19.50.555,tilt_mocs,2024.2.4,120.1062931082786,2025-10-17 11h19.58.011691 -0400,
2.4166666666666665,15.0,,96,96,0,,,,,,,,,,m2,poss,100,right,1.5936905420021503,None,None,,,,,,,,,,,0,96,96,42,179.49583154200081,,,,,,,,,,,,,,,,,,,,,,,,,,,,,,,,,,,,,,,,,,,,,,,,,,,,,,,179.487934959001,179.49583154200081,179.98487354199824,179.98487354199824,180.05975933399895,180.05975933399895,181.09550804199898,right,1.5936905420021503,None,181.09561154199764,181.09565562499847,None,,,,,,,,,,,,21049999,0,2025-10-17_11h19.50.555,tilt_mocs,2024.2.4,120.1062931082786,2025-10-17 11h19.58.011691 -0400,
4.416666666666666,15.0,,97,97,0,,,,,,,,,,p2,poss,100,right,0.638298500001838,None,None,,,,,,,,,,,0,97,97,236,181.10557400000107,,,,,,,,,,,,,,,,,,,,,,,,,,,,,,,,,,,,,,,,,,,,,,,,,,,,,,,181.0975925419989,181.10557400000107,181.59198604199992,181.59198604199992,181.66504412499853,181.66504412499853,181.74646345899964,right,0.638298500001838,None,181.74658649999765,181.74663945900102,None,,,,,,,,,,,,21049999,0,2025-10-17_11h19.50.555,tilt_mocs,2024.2.4,120.1062931082786,2025-10-17 11h19.58.011691 -0400,
-1.2777777777777777,-15.0,,98,98,0,,,,,,,,,,PSE,negs,100,left,0.9801448329999403,None,None,,,,,,,,,,,0,98,98,406,181.75654329199824,,,,,,,,,,,,,,,,,,,,,,,,,,,,,,,,,,,,,,,,,,,,,,,,,,,,,,,181.7486862500009,181.75654329199824,182.24283749999813,182.24283749999813,182.31529604200114,182.31529604200114,182.7454464170005,left,0.9801448329999403,None,182.74557350000032,182.74562887499997,None,,,,,,,,,,,,21049999,0,2025-10-17_11h19.50.555,tilt_mocs,2024.2.4,120.1062931082786,2025-10-17 11h19.58.011691 -0400,
1.9166666666666663,15.0,,99,99,0,,,,,,,,,,m3,poss,100,right,0.8323159579995263,None,None,,,,,,,,,,,0,99,99,20,182.75618424999993,,,,,,,,,,,,,,,,,,,,,,,,,,,,,,,,,,,,,,,,,,,,,,,,,,,,,,,182.74805887500042,182.75618424999993,183.24288491699917,183.24288491699917,183.314905291998,183.314905291998,183.59538270899793,right,0.8323159579995263,None,183.5955428749985,183.59560208399853,None,,,,,,,,,,,,21049999,0,2025-10-17_11h19.50.555,tilt_mocs,2024.2.4,120.1062931082786,2025-10-17 11h19.58.011691 -0400,
0.2777777777777779,0.0,,100,100,0,,,,,,,,,,m3,noss,0,left,1.0660826249986712,None,space,14.23545066600127,None,,,,,,,,,0,100,100,561,183.6063948339979,,,,,,,,,,,,,,,,,,,,,,,,,,,,,,,,,,,,,,,,,,,,,,,,,,,,,,,183.59825841699785,183.6063948339979,184.09277237499919,184.09277237499919,184.16421470899877,184.16421470899877,184.67861795899807,left,1.0660826249986712,None,184.67871949999972,198.92913299999782,space,184.68831724999836,184.68831724999836,14.23545066600127,None,,,,,,,,21049999,0,2025-10-17_11h19.50.555,tilt_mocs,2024.2.4,120.1062931082786,2025-10-17 11h19.58.011691 -0400,
2.9166666666666665,15.0,,101,101,0,,,,,,,,,,m1,poss,100,left,1.4090490840026177,None,None,,,,,,,,,,,0,101,101,110,198.94006995900054,,,,,,,,,,,,,,,,,,,,,,,,,,,,,,,,,,,,,,,,,,,,,,,,,,,,,,,198.93116995899982,198.94006995900054,199.42658283399942,199.42658283399942,199.49947874999998,199.49947874999998,200.35297870900104,left,1.4090490840026177,None,200.35311720900063,200.3531674170008,None,,,,,,,,,,,,21049999,0,2025-10-17_11h19.50.555,tilt_mocs,2024.2.4,120.1062931082786,2025-10-17 11h19.58.011691 -0400,
4.916666666666666,15.0,,102,102,0,,,,,,,,,,p3,poss,100,left,1.0028221249995113,None,None,,,,,,,,,,,0,102,102,261,200.36307074999786,,,,,,,,,,,,,,,,,,,,,,,,,,,,,,,,,,,,,,,,,,,,,,,,,,,,,,,200.3551995839989,200.36307074999786,200.8532869999981,200.8532869999981,200.92730933399798,200.92730933399798,201.36868345900075,left,1.0028221249995113,None,201.3688252920001,201.36888075000024,None,,,,,,,,,,,,21049999,0,2025-10-17_11h19.50.555,tilt_mocs,2024.2.4,120.1062931082786,2025-10-17 11h19.58.011691 -0400,
1.9166666666666663,15.0,,103,103,0,,,,,,,,,,m3,poss,100,left,1.0080568749981467,None,None,,,,,,,,,,,0,103,103,31,201.379646166999,,,,,,,,,,,,,,,,,,,,,,,,,,,,,,,,,,,,,,,,,,,,,,,,,,,,,,,201.37111899999945,201.379646166999,201.87002754199784,201.87002754199784,201.94400374999896,201.94400374999896,202.39615558399964,left,1.0080568749981467,None,202.3962857919978,202.39634245900015,None,,,,,,,,,,,,21049999,0,2025-10-17_11h19.50.555,tilt_mocs,2024.2.4,120.1062931082786,2025-10-17 11h19.58.011691 -0400,
-0.2777777777777777,-15.0,,104,104,0,,,,,,,,,,p2,negs,100,right,1.0078223340024124,None,None,,,,,,,,,,,0,104,104,498,202.40679133400045,,,,,,,,,,,,,,,,,,,,,,,,,,,,,,,,,,,,,,,,,,,,,,,,,,,,,,,202.39879858399945,202.40679133400045,202.8934525420009,202.8934525420009,202.96631008400072,202.96631008400072,203.4181938340007,right,1.0078223340024124,None,203.4182921669999,203.41833387500083,None,,,,,,,,,,,,21049999,0,2025-10-17_11h19.50.555,tilt_mocs,2024.2.4,120.1062931082786,2025-10-17 11h19.58.011691 -0400,
2.4166666666666665,15.0,,105,105,0,,,,,,,,,,m2,poss,100,right,1.212605540997174,None,None,,,,,,,,,,,0,105,105,62,203.42838912499792,,,,,,,,,,,,,,,,,,,,,,,,,,,,,,,,,,,,,,,,,,,,,,,,,,,,,,,203.42029941700093,203.42838912499792,203.91908445900117,203.91908445900117,203.99409854199985,203.99409854199985,204.64636829200026,right,1.212605540997174,None,204.6464974169976,204.64655345899882,None,,,,,,,,,,,,21049999,0,2025-10-17_11h19.50.555,tilt_mocs,2024.2.4,120.1062931082786,2025-10-17 11h19.58.011691 -0400,
1.222222222222222,0.0,,106,106,0,,,,,,,,,,PSE,noss,0,right,1.0939106670011824,None,None,,,,,,,,,,,0,106,106,623,204.65714608399867,,,,,,,,,,,,,,,,,,,,,,,,,,,,,,,,,,,,,,,,,,,,,,,,,,,,,,,204.6490345839993,204.65714608399867,205.143422541998,205.143422541998,205.21578612499798,205.21578612499798,205.76269991699883,right,1.0939106670011824,None,205.76283216699812,205.7628913339977,None,,,,,,,,,,,,21049999,0,2025-10-17_11h19.50.555,tilt_mocs,2024.2.4,120.1062931082786,2025-10-17 11h19.58.011691 -0400,
-0.7777777777777777,-15.0,,107,107,0,,,,,,,,,,p1,negs,100,right,1.2049795419989096,None,None,,,,,,,,,,,0,107,107,458,205.77290875000108,,,,,,,,,,,,,,,,,,,,,,,,,,,,,,,,,,,,,,,,,,,,,,,,,,,,,,,205.76485920900086,205.77290875000108,206.26025562499854,206.26025562499854,206.33362591699915,206.33362591699915,206.9806600419979,right,1.2049795419989096,None,206.98080762500103,206.98086862499986,None,,,,,,,,,,,,21049999,0,2025-10-17_11h19.50.555,tilt_mocs,2024.2.4,120.1062931082786,2025-10-17 11h19.58.011691 -0400,
4.416666666666666,15.0,,108,108,0,,,,,,,,,,p2,poss,100,right,0.9192655000006198,None,None,,,,,,,,,,,0,108,108,210,206.99186895899766,,,,,,,,,,,,,,,,,,,,,,,,,,,,,,,,,,,,,,,,,,,,,,,,,,,,,,,206.98353870899882,206.99186895899766,207.47700537499986,207.47700537499986,207.54930737500035,207.54930737500035,207.91368791700006,right,0.9192655000006198,None,207.91382579199853,207.9138831249984,None,,,,,,,,,,,,21049999,0,2025-10-17_11h19.50.555,tilt_mocs,2024.2.4,120.1062931082786,2025-10-17 11h19.58.011691 -0400,
3.9166666666666665,15.0,,109,109,0,,,,,,,,,,p1,poss,100,right,1.1442898339992098,None,None,,,,,,,,,,,0,109,109,173,207.92426129199885,,,,,,,,,,,,,,,,,,,,,,,,,,,,,,,,,,,,,,,,,,,,,,,,,,,,,,,207.9160331669991,207.92426129199885,208.41022829199937,208.41022829199937,208.48240133400031,208.48240133400031,209.07824337499915,right,1.1442898339992098,None,209.07828395899924,209.07829862499784,None,,,,,,,,,,,,21049999,0,2025-10-17_11h19.50.555,tilt_mocs,2024.2.4,120.1062931082786,2025-10-17 11h19.58.011691 -0400,
3.4166666666666665,15.0,,110,110,0,,,,,,,,,,PSE,poss,100,right,1.342392499998823,None,None,,,,,,,,,,,0,110,110,159,209.0849918749991,,,,,,,,,,,,,,,,,,,,,,,,,,,,,,,,,,,,,,,,,,,,,,,,,,,,,,,209.0790032090008,209.0849918749991,209.56934012499914,209.56934012499914,209.64419949999865,209.64419949999865,210.4302128749987,right,1.342392499998823,None,210.43036949999805,210.43042774999776,None,,,,,,,,,,,,21049999,0,2025-10-17_11h19.50.555,tilt_mocs,2024.2.4,120.1062931082786,2025-10-17 11h19.58.011691 -0400,
0.7222222222222221,0.0,,111,111,0,,,,,,,,,,m1,noss,0,left,1.3170773329984513,None,None,,,,,,,,,,,0,111,111,618,210.44116195899915,,,,,,,,,,,,,,,,,,,,,,,,,,,,,,,,,,,,,,,,,,,,,,,,,,,,,,,210.43284683399906,210.44116195899915,210.92700366699864,210.92700366699864,210.99953162499878,210.99953162499878,211.76335091700093,left,1.3170773329984513,None,211.76346633399953,211.76351254199835,None,,,,,,,,,,,,21049999,0,2025-10-17_11h19.50.555,tilt_mocs,2024.2.4,120.1062931082786,2025-10-17 11h19.58.011691 -0400,
-0.2222222222222223,-15.0,,112,112,0,,,,,,,,,,p3,negs,100,right,1.2946936250009458,None,None,,,,,,,,,,,0,112,112,529,211.77354133399785,,,,,,,,,,,,,,,,,,,,,,,,,,,,,,,,,,,,,,,,,,,,,,,,,,,,,,,211.76553258399872,211.77354133399785,212.26039845899868,212.26039845899868,212.33351041700007,212.33351041700007,213.07972283399795,right,1.2946936250009458,None,213.07985191699845,213.07990625000093,None,,,,,,,,,,,,21049999,0,2025-10-17_11h19.50.555,tilt_mocs,2024.2.4,120.1062931082786,2025-10-17 11h19.58.011691 -0400,
-2.7777777777777777,-15.0,,113,113,0,,,,,,,,,,m3,negs,100,left,1.1051082910016703,None,None,,,,,,,,,,,0,113,113,281,213.09024141699774,,,,,,,,,,,,,,,,,,,,,,,,,,,,,,,,,,,,,,,,,,,,,,,,,,,,,,,213.0821477919999,213.09024141699774,213.57723691700085,213.57723691700085,213.6491690840012,213.6491690840012,214.20139449999988,left,1.1051082910016703,None,214.20151991699822,214.20157325000037,None,,,,,,,,,,,,21049999,0,2025-10-17_11h19.50.555,tilt_mocs,2024.2.4,120.1062931082786,2025-10-17 11h19.58.011691 -0400,
-0.2222222222222223,-15.0,,114,114,0,,,,,,,,,,p3,negs,100,right,0.927775832999032,None,None,,,,,,,,,,,0,114,114,556,214.2273642500004,,,,,,,,,,,,,,,,,,,,,,,,,,,,,,,,,,,,,,,,,,,,,,,,,,,,,,,214.20353774999967,214.2273642500004,214.70261783399837,214.70261783399837,214.77777058399806,214.77777058399806,215.1633069999989,right,0.927775832999032,None,215.1634656669994,215.16351995899822,None,,,,,,,,,,,,21049999,0,2025-10-17_11h19.50.555,tilt_mocs,2024.2.4,120.1062931082786,2025-10-17 11h19.58.011691 -0400,
-0.2777777777777777,-15.0,,115,115,0,,,,,,,,,,p2,negs,100,right,1.0697842500012484,None,None,,,,,,,,,,,0,115,115,510,215.17469091699968,,,,,,,,,,,,,,,,,,,,,,,,,,,,,,,,,,,,,,,,,,,,,,,,,,,,,,,215.1664830419977,215.17469091699968,215.6605950000012,215.6605950000012,215.73315229199943,215.73315229199943,216.24693641699923,right,1.0697842500012484,None,216.24706204199902,216.2471161249996,None,,,,,,,,,,,,21049999,0,2025-10-17_11h19.50.555,tilt_mocs,2024.2.4,120.1062931082786,2025-10-17 11h19.58.011691 -0400,
2.4166666666666665,15.0,,116,116,0,,,,,,,,,,m2,poss,100,left,1.2662961249989166,None,None,,,,,,,,,,,0,116,116,52,216.25762187500004,,,,,,,,,,,,,,,,,,,,,,,,,,,,,,,,,,,,,,,,,,,,,,,,,,,,,,,216.2495836249982,216.25762187500004,216.74402824999925,216.74402824999925,216.81660658399778,216.81660658399778,217.52994654199938,left,1.2662961249989166,None,217.53004554200015,217.53008699999918,None,,,,,,,,,,,,21049999,0,2025-10-17_11h19.50.555,tilt_mocs,2024.2.4,120.1062931082786,2025-10-17 11h19.58.011691 -0400,
-1.7777777777777777,-15.0,,117,117,0,,,,,,,,,,m1,negs,100,right,1.239715708001313,None,None,,,,,,,,,,,0,117,117,361,217.5400252920008,,,,,,,,,,,,,,,,,,,,,,,,,,,,,,,,,,,,,,,,,,,,,,,,,,,,,,,217.53200266699787,217.5400252920008,218.0273776670001,218.0273776670001,218.1004071669995,218.1004071669995,218.7851604589996,right,1.239715708001313,None,218.7853864589997,218.7855022090007,None,,,,,,,,,,,,21049999,0,2025-10-17_11h19.50.555,tilt_mocs,2024.2.4,120.1062931082786,2025-10-17 11h19.58.011691 -0400,
-2.7777777777777777,-15.0,,118,118,0,,,,,,,,,,m3,negs,100,left,1.2024959159971331,None,None,,,,,,,,,,,0,118,118,305,218.7960739170012,,,,,,,,,,,,,,,,,,,,,,,,,,,,,,,,,,,,,,,,,,,,,,,,,,,,,,,218.7878503339998,218.7960739170012,219.28610900000058,219.28610900000058,219.36122733400043,219.36122733400043,220.0027895839994,left,1.2024959159971331,None,220.0029154590011,220.00297558400052,None,,,,,,,,,,,,21049999,0,2025-10-17_11h19.50.555,tilt_mocs,2024.2.4,120.1062931082786,2025-10-17 11h19.58.011691 -0400,
1.222222222222222,0.0,,119,119,0,,,,,,,,,,PSE,noss,0,right,1.1815326669966453,None,None,,,,,,,,,,,0,119,119,629,220.01350020899918,,,,,,,,,,,,,,,,,,,,,,,,,,,,,,,,,,,,,,,,,,,,,,,,,,,,,,,220.00508620899927,220.01350020899918,220.5036502920011,220.5036502920011,220.57800124999994,220.57800124999994,221.19755737499872,right,1.1815326669966453,None,221.19769208399885,221.19774633400084,None,,,,,,,,,,,,21049999,0,2025-10-17_11h19.50.555,tilt_mocs,2024.2.4,120.1062931082786,2025-10-17 11h19.58.011691 -0400,
0.7222222222222221,0.0,,120,120,0,,,,,,,,,,m1,noss,0,left,1.09149404100026,None,None,,,,,,,,,,,0,120,120,614,221.20829149999918,,,,,,,,,,,,,,,,,,,,,,,,,,,,,,,,,,,,,,,,,,,,,,,,,,,,,,,221.20004708399938,221.20829149999918,221.6940420840001,221.6940420840001,221.76741879199835,221.76741879199835,222.30296912499762,left,1.09149404100026,None,222.30309787499937,222.3031541249984,None,,,,,,,,,,,,21049999,0,2025-10-17_11h19.50.555,tilt_mocs,2024.2.4,120.1062931082786,2025-10-17 11h19.58.011691 -0400,
2.7222222222222223,0.0,,121,121,0,,,,,,,,,,p3,noss,0,right,1.265398040999571,None,None,,,,,,,,,,,0,121,121,693,222.3136616669981,,,,,,,,,,,,,,,,,,,,,,,,,,,,,,,,,,,,,,,,,,,,,,,,,,,,,,,222.30528920899815,222.3136616669981,222.80377658399811,222.80377658399811,222.87814612500006,222.87814612500006,223.59060645899808,right,1.265398040999571,None,223.59071016699818,223.59076016700055,None,,,,,,,,,,,,21049999,0,2025-10-17_11h19.50.555,tilt_mocs,2024.2.4,120.1062931082786,2025-10-17 11h19.58.011691 -0400,
2.9166666666666665,15.0,,122,122,0,,,,,,,,,,m1,poss,100,left,1.0418300409983203,None,None,,,,,,,,,,,0,122,122,94,223.59738658399874,,,,,,,,,,,,,,,,,,,,,,,,,,,,,,,,,,,,,,,,,,,,,,,,,,,,,,,223.5926766249977,223.59738658399874,224.08663112499926,224.08663112499926,224.16141037499983,224.16141037499983,224.64743620900117,left,1.0418300409983203,None,224.64757499999905,224.6476315,None,,,,,,,,,,,,21049999,0,2025-10-17_11h19.50.555,tilt_mocs,2024.2.4,120.1062931082786,2025-10-17 11h19.58.011691 -0400,
2.9166666666666665,15.0,,123,123,0,,,,,,,,,,m1,poss,100,left,0.9969058339993353,None,None,,,,,,,,,,,0,123,123,104,224.65782150000086,,,,,,,,,,,,,,,,,,,,,,,,,,,,,,,,,,,,,,,,,,,,,,,,,,,,,,,224.6497847089995,224.65782150000086,225.14421104199937,225.14421104199937,225.21635895899817,225.21635895899817,225.66374300000098,left,0.9969058339993353,None,225.66390899999897,225.66396024999995,None,,,,,,,,,,,,21049999,0,2025-10-17_11h19.50.555,tilt_mocs,2024.2.4,120.1062931082786,2025-10-17 11h19.58.011691 -0400,
4.416666666666666,15.0,,124,124,0,,,,,,,,,,p2,poss,100,right,1.0822527080017608,None,None,,,,,,,,,,,0,124,124,204,225.6752032919976,,,,,,,,,,,,,,,,,,,,,,,,,,,,,,,,,,,,,,,,,,,,,,,,,,,,,,,225.6667557920009,225.6752032919976,226.16098116699868,226.16098116699868,226.2340773750002,226.2340773750002,226.76343662499858,right,1.0822527080017608,None,226.76353887499863,226.7635807919978,None,,,,,,,,,,,,21049999,0,2025-10-17_11h19.50.555,tilt_mocs,2024.2.4,120.1062931082786,2025-10-17 11h19.58.011691 -0400,
-2.7777777777777777,-15.0,,125,125,0,,,,,,,,,,m3,negs,100,left,1.0725318340009835,None,None,,,,,,,,,,,0,125,125,293,226.7734891250002,,,,,,,,,,,,,,,,,,,,,,,,,,,,,,,,,,,,,,,,,,,,,,,,,,,,,,,226.76552608400016,226.7734891250002,227.26035329200022,227.26035329200022,227.334072499998,227.334072499998,227.858146999999,left,1.0725318340009835,None,227.85824566700103,227.85829408399877,None,,,,,,,,,,,,21049999,0,2025-10-17_11h19.50.555,tilt_mocs,2024.2.4,120.1062931082786,2025-10-17 11h19.58.011691 -0400,
-1.7777777777777777,-15.0,,126,126,0,,,,,,,,,,m1,negs,100,left,1.3165930420000223,None,None,,,,,,,,,,,0,126,126,387,227.86480875000052,,,,,,,,,,,,,,,,,,,,,,,,,,,,,,,,,,,,,,,,,,,,,,,,,,,,,,,227.86023570899852,227.86480875000052,228.3538246249991,228.3538246249991,228.4282409999978,228.4282409999978,229.18548250000094,left,1.3165930420000223,None,229.1855769169997,229.18561829199825,None,,,,,,,,,,,,21049999,0,2025-10-17_11h19.50.555,tilt_mocs,2024.2.4,120.1062931082786,2025-10-17 11h19.58.011691 -0400,
0.2222222222222221,0.0,,127,127,0,,,,,,,,,,m2,noss,0,left,1.003880707998178,None,None,,,,,,,,,,,0,127,127,593,229.21111479200044,,,,,,,,,,,,,,,,,,,,,,,,,,,,,,,,,,,,,,,,,,,,,,,,,,,,,,,229.18749404199843,229.21111479200044,229.68692716700025,229.68692716700025,229.76157058399986,229.76157058399986,230.21917012499762,left,1.003880707998178,None,230.21929254199858,230.2193392500012,None,,,,,,,,,,,,21049999,0,2025-10-17_11h19.50.555,tilt_mocs,2024.2.4,120.1062931082786,2025-10-17 11h19.58.011691 -0400,
4.916666666666666,15.0,,128,128,0,,,,,,,,,,p3,poss,100,right,1.0937037090006925,None,None,,,,,,,,,,,0,128,128,269,230.22987629199997,,,,,,,,,,,,,,,,,,,,,,,,,,,,,,,,,,,,,,,,,,,,,,,,,,,,,,,230.2212512090009,230.22987629199997,230.72057762500117,230.72057762500117,230.7947762090007,230.7947762090007,231.33039216699763,right,1.0937037090006925,None,231.3305142499994,231.33056783400025,None,,,,,,,,,,,,21049999,0,2025-10-17_11h19.50.555,tilt_mocs,2024.2.4,120.1062931082786,2025-10-17 11h19.58.011691 -0400,
-2.2777777777777777,-15.0,,129,129,0,,,,,,,,,,m2,negs,100,left,1.0763785419985652,None,None,,,,,,,,,,,0,129,129,324,231.34054425000068,,,,,,,,,,,,,,,,,,,,,,,,,,,,,,,,,,,,,,,,,,,,,,,,,,,,,,,231.33261241699802,231.34054425000068,231.82711175000077,231.82711175000077,231.90072012499877,231.90072012499877,232.41958149999846,left,1.0763785419985652,None,232.4196989589982,232.4197505839984,None,,,,,,,,,,,,21049999,0,2025-10-17_11h19.50.555,tilt_mocs,2024.2.4,120.1062931082786,2025-10-17 11h19.58.011691 -0400,
4.916666666666666,15.0,,130,130,0,,,,,,,,,,p3,poss,100,left,2.1389026659999217,None,None,,,,,,,,,,,0,130,130,265,232.42983354199896,,,,,,,,,,,,,,,,,,,,,,,,,,,,,,,,,,,,,,,,,,,,,,,,,,,,,,,232.4217447919982,232.42983354199896,232.9200696250009,232.9200696250009,232.99507549999907,232.99507549999907,234.58099687499998,left,2.1389026659999217,None,234.5811632090008,234.58121599999868,None,,,,,,,,,,,,21049999,0,2025-10-17_11h19.50.555,tilt_mocs,2024.2.4,120.1062931082786,2025-10-17 11h19.58.011691 -0400,
4.416666666666666,15.0,,131,131,0,,,,,,,,,,p2,poss,100,left,1.7253789999995206,None,None,,,,,,,,,,,0,131,131,207,234.5926322089981,,,,,,,,,,,,,,,,,,,,,,,,,,,,,,,,,,,,,,,,,,,,,,,,,,,,,,,234.58425862500007,234.5926322089981,235.07799691699984,235.07799691699984,235.15109799999846,235.15109799999846,236.32056187499984,left,1.7253789999995206,None,236.32066816699808,236.32071158399776,None,,,,,,,,,,,,21049999,0,2025-10-17_11h19.50.555,tilt_mocs,2024.2.4,120.1062931082786,2025-10-17 11h19.58.011691 -0400,
-0.2777777777777777,-15.0,,132,132,0,,,,,,,,,,p2,negs,100,left,2.4446421249995183,None,None,,,,,,,,,,,0,132,132,518,236.3309137920005,,,,,,,,,,,,,,,,,,,,,,,,,,,,,,,,,,,,,,,,,,,,,,,,,,,,,,,236.32265337499848,236.3309137920005,236.82043324999904,236.82043324999904,236.8952417920009,236.8952417920009,238.78086691700082,left,2.4446421249995183,None,238.78099391700016,238.78104704200086,None,,,,,,,,,,,,21049999,0,2025-10-17_11h19.50.555,tilt_mocs,2024.2.4,120.1062931082786,2025-10-17 11h19.58.011691 -0400,
4.416666666666666,15.0,,133,133,0,,,,,,,,,,p2,poss,100,left,2.171277707999252,None,None,,,,,,,,,,,0,133,133,233,238.79168133399799,,,,,,,,,,,,,,,,,,,,,,,,,,,,,,,,,,,,,,,,,,,,,,,,,,,,,,,238.78343908399984,238.79168133399799,239.27826962499967,239.27826962499967,239.3502727089981,239.3502727089981,240.9699291249999,left,2.171277707999252,None,240.97003262499857,240.9700759999978,None,,,,,,,,,,,,21049999,0,2025-10-17_11h19.50.555,tilt_mocs,2024.2.4,120.1062931082786,2025-10-17 11h19.58.011691 -0400,
-1.2777777777777777,-15.0,,134,134,0,,,,,,,,,,PSE,negs,100,right,2.951877457999217,None,None,,,,,,,,,,,0,134,134,412,240.98051716699774,,,,,,,,,,,,,,,,,,,,,,,,,,,,,,,,,,,,,,,,,,,,,,,,,,,,,,,240.97205108399794,240.98051716699774,241.47010125000088,241.47010125000088,241.54545658400093,241.54545658400093,243.93636879199767,right,2.951877457999217,None,243.93651258399768,243.9365702089999,None,,,,,,,,,,,,21049999,0,2025-10-17_11h19.50.555,tilt_mocs,2024.2.4,120.1062931082786,2025-10-17 11h19.58.011691 -0400,
-1.7777777777777777,-15.0,,135,135,0,,,,,,,,,,m1,negs,100,right,1.7743557499998133,None,None,,,,,,,,,,,0,135,135,373,243.94717608399878,,,,,,,,,,,,,,,,,,,,,,,,,,,,,,,,,,,,,,,,,,,,,,,,,,,,,,,243.93868970900076,243.94717608399878,244.43674445899887,244.43674445899887,244.512156959001,244.512156959001,245.7309420419988,right,1.7743557499998133,None,245.73106429199834,245.73111749999953,None,,,,,,,,,,,,21049999,0,2025-10-17_11h19.50.555,tilt_mocs,2024.2.4,120.1062931082786,2025-10-17 11h19.58.011691 -0400,
2.9166666666666665,15.0,,136,136,0,,,,,,,,,,m1,poss,100,left,2.271436499999254,None,None,,,,,,,,,,,0,136,136,118,245.7411987919986,,,,,,,,,,,,,,,,,,,,,,,,,,,,,,,,,,,,,,,,,,,,,,,,,,,,,,,245.73353054199833,245.7411987919986,246.228319834001,246.228319834001,246.30078345899892,246.30078345899892,248.01545554199765,left,2.271436499999254,None,248.01569470899994,248.01578962499843,None,,,,,,,,,,,,21049999,0,2025-10-17_11h19.50.555,tilt_mocs,2024.2.4,120.1062931082786,2025-10-17 11h19.58.011691 -0400,
3.9166666666666665,15.0,,137,137,0,,,,,,,,,,p1,poss,100,right,1.325203666001471,None,None,,,,,,,,,,,0,137,137,168,248.0264375839979,,,,,,,,,,,,,,,,,,,,,,,,,,,,,,,,,,,,,,,,,,,,,,,,,,,,,,,248.01827062499797,248.0264375839979,248.5118271249994,248.5118271249994,248.58416287499858,248.58416287499858,249.35476645900053,right,1.325203666001471,None,249.35490674999892,249.3549635419986,None,,,,,,,,,,,,21049999,0,2025-10-17_11h19.50.555,tilt_mocs,2024.2.4,120.1062931082786,2025-10-17 11h19.58.011691 -0400,
-2.7777777777777777,-15.0,,138,138,0,,,,,,,,,,m3,negs,100,right,1.1145499170015682,None,None,,,,,,,,,,,0,138,138,302,249.36483308400057,,,,,,,,,,,,,,,,,,,,,,,,,,,,,,,,,,,,,,,,,,,,,,,,,,,,,,,249.35716479199982,249.36483308400057,249.85496941699967,249.85496941699967,249.929000791999,249.929000791999,250.48251441699904,right,1.1145499170015682,None,250.482662041999,250.48272454199832,None,,,,,,,,,,,,21049999,0,2025-10-17_11h19.50.555,tilt_mocs,2024.2.4,120.1062931082786,2025-10-17 11h19.58.011691 -0400,
2.4166666666666665,15.0,,139,139,0,,,,,,,,,,m2,poss,100,right,3.3624727909991634,None,None,,,,,,,,,,,0,139,139,63,250.4929007089995,,,,,,,,,,,,,,,,,,,,,,,,,,,,,,,,,,,,,,,,,,,,,,,,,,,,,,,250.484836833999,250.4929007089995,250.97854770900085,250.97854770900085,251.05036962499798,251.05036962499798,253.86453299999994,right,3.3624727909991634,None,253.86463533400092,253.86467862499921,None,,,,,,,,,,,,21049999,0,2025-10-17_11h19.50.555,tilt_mocs,2024.2.4,120.1062931082786,2025-10-17 11h19.58.011691 -0400,
-2.7777777777777777,-15.0,,140,140,0,,,,,,,,,,m3,negs,100,left,1.2713946660005604,None,None,,,,,,,,,,,0,140,140,313,253.87489283399918,,,,,,,,,,,,,,,,,,,,,,,,,,,,,,,,,,,,,,,,,,,,,,,,,,,,,,,253.8666114589978,253.87489283399918,254.36195333399883,254.36195333399883,254.43458283400105,254.43458283400105,255.14874720900116,left,1.2713946660005604,None,255.1488583749997,255.1489015420011,None,,,,,,,,,,,,21049999,0,2025-10-17_11h19.50.555,tilt_mocs,2024.2.4,120.1062931082786,2025-10-17 11h19.58.011691 -0400,
0.2222222222222221,0.0,,141,141,0,,,,,,,,,,m2,noss,0,right,1.1560222910011362,None,None,,,,,,,,,,,0,141,141,598,255.1589211669998,,,,,,,,,,,,,,,,,,,,,,,,,,,,,,,,,,,,,,,,,,,,,,,,,,,,,,,255.15091295899765,255.1589211669998,255.64546783399783,255.64546783399783,255.71753587499916,255.71753587499916,256.3197800839989,right,1.1560222910011362,None,256.3198778750011,256.319921667,None,,,,,,,,,,,,21049999,0,2025-10-17_11h19.50.555,tilt_mocs,2024.2.4,120.1062931082786,2025-10-17 11h19.58.011691 -0400,
2.2222222222222223,0.0,,142,142,0,,,,,,,,,,p2,noss,0,right,1.7256723329992383,None,None,,,,,,,,,,,0,142,142,660,256.3455335840008,,,,,,,,,,,,,,,,,,,,,,,,,,,,,,,,,,,,,,,,,,,,,,,,,,,,,,,256.32184662500003,256.3455335840008,256.820822624999,256.820822624999,256.8958764589988,256.8958764589988,258.08150608399956,right,1.7256723329992383,None,258.0816417089991,258.08169604199793,None,,,,,,,,,,,,21049999,0,2025-10-17_11h19.50.555,tilt_mocs,2024.2.4,120.1062931082786,2025-10-17 11h19.58.011691 -0400,
3.4166666666666665,15.0,,143,143,0,,,,,,,,,,PSE,poss,100,right,1.2074782920026337,None,None,,,,,,,,,,,0,143,143,125,258.09220879200075,,,,,,,,,,,,,,,,,,,,,,,,,,,,,,,,,,,,,,,,,,,,,,,,,,,,,,,258.0840959169982,258.09220879200075,258.5787565419996,258.5787565419996,258.65096387499943,258.65096387499943,259.3032129589992,right,1.2074782920026337,None,259.30331016700075,259.30335316700075,None,,,,,,,,,,,,21049999,0,2025-10-17_11h19.50.555,tilt_mocs,2024.2.4,120.1062931082786,2025-10-17 11h19.58.011691 -0400,
1.722222222222222,0.0,,144,144,0,,,,,,,,,,p1,noss,0,right,1.0003500419988995,None,None,,,,,,,,,,,0,144,144,642,259.3289909999985,,,,,,,,,,,,,,,,,,,,,,,,,,,,,,,,,,,,,,,,,,,,,,,,,,,,,,,259.3052597499991,259.3289909999985,259.8043335000002,259.8043335000002,259.87955175000025,259.87955175000025,260.331971708998,right,1.0003500419988995,None,260.33211112500067,260.33216600000014,None,,,,,,,,,,,,21049999,0,2025-10-17_11h19.50.555,tilt_mocs,2024.2.4,120.1062931082786,2025-10-17 11h19.58.011691 -0400,
0.7222222222222221,0.0,,145,145,0,,,,,,,,,,m1,noss,0,right,0.9870449999980337,None,None,,,,,,,,,,,0,145,145,605,260.3426459170005,,,,,,,,,,,,,,,,,,,,,,,,,,,,,,,,,,,,,,,,,,,,,,,,,,,,,,,260.3345479999989,260.3426459170005,260.8282751669976,260.8282751669976,260.9011892499984,260.9011892499984,261.3327099169983,right,0.9870449999980337,None,261.3329519170002,261.33304520899765,None,,,,,,,,,,,,21049999,0,2025-10-17_11h19.50.555,tilt_mocs,2024.2.4,120.1062931082786,2025-10-17 11h19.58.011691 -0400,
2.2222222222222223,0.0,,146,146,0,,,,,,,,,,p2,noss,0,right,0.9089941669990367,None,None,,,,,,,,,,,0,146,146,665,261.3439647499981,,,,,,,,,,,,,,,,,,,,,,,,,,,,,,,,,,,,,,,,,,,,,,,,,,,,,,,261.3356612919997,261.3439647499981,261.8288813750005,261.8288813750005,261.90184570899874,261.90184570899874,262.2640897499987,right,0.9089941669990367,None,262.26420033400063,262.2642584169989,None,,,,,,,,,,,,21049999,0,2025-10-17_11h19.50.555,tilt_mocs,2024.2.4,120.1062931082786,2025-10-17 11h19.58.011691 -0400,
-1.2777777777777777,-15.0,,147,147,0,,,,,,,,,,PSE,negs,100,right,1.391892416999326,None,None,,,,,,,,,,,0,147,147,437,262.2713673340004,,,,,,,,,,,,,,,,,,,,,,,,,,,,,,,,,,,,,,,,,,,,,,,,,,,,,,,262.26615966700047,262.2713673340004,262.76231445899975,262.76231445899975,262.83561604200077,262.83561604200077,263.6661648749978,right,1.391892416999326,None,263.6663189589999,263.6663789169979,None,,,,,,,,,,,,21049999,0,2025-10-17_11h19.50.555,tilt_mocs,2024.2.4,120.1062931082786,2025-10-17 11h19.58.011691 -0400,
0.2777777777777779,0.0,,148,148,0,,,,,,,,,,m3,noss,0,right,1.2849607089992787,None,None,,,,,,,,,,,0,148,148,577,263.677863375,,,,,,,,,,,,,,,,,,,,,,,,,,,,,,,,,,,,,,,,,,,,,,,,,,,,,,,263.66927004199897,263.677863375,264.1622691249977,264.1622691249977,264.2344236249992,264.2344236249992,264.9653357919997,right,1.2849607089992787,None,264.9654615420004,264.96551437499875,None,,,,,,,,,,,,21049999,0,2025-10-17_11h19.50.555,tilt_mocs,2024.2.4,120.1062931082786,2025-10-17 11h19.58.011691 -0400,
2.4166666666666665,15.0,,149,149,0,,,,,,,,,,m2,poss,100,left,0.98712608400092,None,None,,,,,,,,,,,0,149,149,43,264.9758564590011,,,,,,,,,,,,,,,,,,,,,,,,,,,,,,,,,,,,,,,,,,,,,,,,,,,,,,,264.96770420900066,264.9758564590011,265.4622984999987,265.4622984999987,265.5346903749996,265.5346903749996,265.96600504199887,left,0.98712608400092,None,265.9661512089988,265.966210958999,None,,,,,,,,,,,,21049999,0,2025-10-17_11h19.50.555,tilt_mocs,2024.2.4,120.1062931082786,2025-10-17 11h19.58.011691 -0400,
2.9166666666666665,15.0,,150,150,0,,,,,,,,,,m1,poss,100,left,1.187929833002272,None,None,,,,,,,,,,,0,150,150,102,265.9762769170011,,,,,,,,,,,,,,,,,,,,,,,,,,,,,,,,,,,,,,,,,,,,,,,,,,,,,,,265.96831974999805,265.9762769170011,266.462355959,266.462355959,266.5353032089988,266.5353032089988,267.1702119170004,left,1.187929833002272,None,267.170332458998,267.1703880419991,None,,,,,,,,,,,,21049999,0,2025-10-17_11h19.50.555,tilt_mocs,2024.2.4,120.1062931082786,2025-10-17 11h19.58.011691 -0400,
2.4166666666666665,15.0,,151,151,0,,,,,,,,,,m2,poss,100,left,0.9831696250003006,None,None,,,,,,,,,,,0,151,151,61,267.1808132090009,,,,,,,,,,,,,,,,,,,,,,,,,,,,,,,,,,,,,,,,,,,,,,,,,,,,,,,267.1725648749998,267.1808132090009,267.6617501670007,267.6617501670007,267.73556058399845,267.73556058399845,268.1698763339991,left,0.9831696250003006,None,268.16997891699793,268.1700205419984,None,,,,,,,,,,,,21049999,0,2025-10-17_11h19.50.555,tilt_mocs,2024.2.4,120.1062931082786,2025-10-17 11h19.58.011691 -0400,
-2.2777777777777777,-15.0,,152,152,0,,,,,,,,,,m2,negs,100,left,0.978465457999846,None,None,,,,,,,,,,,0,152,152,345,268.18010349999895,,,,,,,,,,,,,,,,,,,,,,,,,,,,,,,,,,,,,,,,,,,,,,,,,,,,,,,268.17188474999784,268.18010349999895,268.6625169170002,268.6625169170002,268.73464474999855,268.73464474999855,269.1650080420004,left,0.978465457999846,None,269.16510862499854,269.16515220899964,None,,,,,,,,,,,,21049999,0,2025-10-17_11h19.50.555,tilt_mocs,2024.2.4,120.1062931082786,2025-10-17 11h19.58.011691 -0400,
3.9166666666666665,15.0,,153,153,0,,,,,,,,,,p1,poss,100,left,0.7991258750007546,None,None,,,,,,,,,,,0,153,153,181,269.1751609999992,,,,,,,,,,,,,,,,,,,,,,,,,,,,,,,,,,,,,,,,,,,,,,,,,,,,,,,269.167046958999,269.1751609999992,269.6624809999994,269.6624809999994,269.73463825,269.73463825,269.98287029199855,left,0.7991258750007546,None,269.9830006669981,269.983057999998,None,,,,,,,,,,,,21049999,0,2025-10-17_11h19.50.555,tilt_mocs,2024.2.4,120.1062931082786,2025-10-17 11h19.58.011691 -0400,
-0.7777777777777777,-15.0,,154,154,0,,,,,,,,,,p1,negs,100,left,1.085948541000107,None,None,,,,,,,,,,,0,154,154,450,269.9941172500003,,,,,,,,,,,,,,,,,,,,,,,,,,,,,,,,,,,,,,,,,,,,,,,,,,,,,,,269.9855708340001,269.9941172500003,270.47930887500115,270.47930887500115,270.5511729589998,270.5511729589998,271.0826196249982,left,1.085948541000107,None,271.0827215419995,271.08276345899867,None,,,,,,,,,,,,21049999,0,2025-10-17_11h19.50.555,tilt_mocs,2024.2.4,120.1062931082786,2025-10-17 11h19.58.011691 -0400,
4.916666666666666,15.0,,155,155,0,,,,,,,,,,p3,poss,100,right,1.1063012499980687,None,None,,,,,,,,,,,0,155,155,276,271.093011459001,,,,,,,,,,,,,,,,,,,,,,,,,,,,,,,,,,,,,,,,,,,,,,,,,,,,,,,271.08497437500046,271.093011459001,271.57925824999984,271.57925824999984,271.6517353749987,271.6517353749987,272.2051797089989,right,1.1063012499980687,None,272.2053178749993,272.20537745899856,None,,,,,,,,,,,,21049999,0,2025-10-17_11h19.50.555,tilt_mocs,2024.2.4,120.1062931082786,2025-10-17 11h19.58.011691 -0400,
2.9166666666666665,15.0,,156,156,0,,,,,,,,,,m1,poss,100,right,1.314196584000456,None,None,,,,,,,,,,,0,156,156,92,272.2156670000004,,,,,,,,,,,,,,,,,,,,,,,,,,,,,,,,,,,,,,,,,,,,,,,,,,,,,,,272.20764391699777,272.2156670000004,272.70528574999844,272.70528574999844,272.77983400000085,272.77983400000085,273.5324114169998,right,1.314196584000456,None,273.53254562499933,273.53260337499887,None,,,,,,,,,,,,21049999,0,2025-10-17_11h19.50.555,tilt_mocs,2024.2.4,120.1062931082786,2025-10-17 11h19.58.011691 -0400,
2.9166666666666665,15.0,,157,157,0,,,,,,,,,,m1,poss,100,right,1.2205239590002748,None,None,,,,,,,,,,,0,157,157,84,273.5429937500012,,,,,,,,,,,,,,,,,,,,,,,,,,,,,,,,,,,,,,,,,,,,,,,,,,,,,,,273.53477933400063,273.5429937500012,274.0293948340004,274.0293948340004,274.101430374998,274.101430374998,274.7660826249994,right,1.2205239590002748,None,274.7662167089984,274.7662735419981,None,,,,,,,,,,,,21049999,0,2025-10-17_11h19.50.555,tilt_mocs,2024.2.4,120.1062931082786,2025-10-17 11h19.58.011691 -0400,
-1.2777777777777777,-15.0,,158,158,0,,,,,,,,,,PSE,negs,100,right,2.007714583000052,None,None,,,,,,,,,,,0,158,158,418,274.77669199999946,,,,,,,,,,,,,,,,,,,,,,,,,,,,,,,,,,,,,,,,,,,,,,,,,,,,,,,274.7686015420004,274.77669199999946,275.26274695900065,275.26274695900065,275.33481020899853,275.33481020899853,276.7895050420011,right,2.007714583000052,None,276.789645208999,276.7896994170005,None,,,,,,,,,,,,21049999,0,2025-10-17_11h19.50.555,tilt_mocs,2024.2.4,120.1062931082786,2025-10-17 11h19.58.011691 -0400,
-0.2777777777777777,-15.0,,159,159,0,,,,,,,,,,p2,negs,100,left,3.5182068329995673,None,None,,,,,,,,,,,0,159,159,480,276.79957954199926,,,,,,,,,,,,,,,,,,,,,,,,,,,,,,,,,,,,,,,,,,,,,,,,,,,,,,,276.7918539589991,276.79957954199926,277.288140708999,277.288140708999,277.36334675000035,277.36334675000035,280.32080512500033,left,3.5182068329995673,None,280.32103333399937,280.3211350419988,None,,,,,,,,,,,,21049999,0,2025-10-17_11h19.50.555,tilt_mocs,2024.2.4,120.1062931082786,2025-10-17 11h19.58.011691 -0400,
1.9166666666666663,15.0,,160,160,0,,,,,,,,,,m3,poss,100,left,2.0420189169999503,None,None,,,,,,,,,,,0,160,160,3,280.3319626249977,,,,,,,,,,,,,,,,,,,,,,,,,,,,,,,,,,,,,,,,,,,,,,,,,,,,,,,280.32347295900036,280.3319626249977,280.8224492090012,280.8224492090012,280.8967412089987,280.8967412089987,282.3822376249991,left,2.0420189169999503,None,282.3823672090002,282.3824214169981,None,,,,,,,,,,,,21049999,0,2025-10-17_11h19.50.555,tilt_mocs,2024.2.4,120.1062931082786,2025-10-17 11h19.58.011691 -0400,
3.9166666666666665,15.0,,161,161,0,,,,,,,,,,p1,poss,100,right,2.0206997500026773,None,None,,,,,,,,,,,0,161,161,164,282.3923982089982,,,,,,,,,,,,,,,,,,,,,,,,,,,,,,,,,,,,,,,,,,,,,,,,,,,,,,,282.3844664999997,282.3923982089982,282.87966733400026,282.87966733400026,282.9522739589993,282.9522739589993,284.4159048340007,right,2.0206997500026773,None,284.4160295840011,284.4160962089991,None,,,,,,,,,,,,21049999,0,2025-10-17_11h19.50.555,tilt_mocs,2024.2.4,120.1062931082786,2025-10-17 11h19.58.011691 -0400,
-0.2777777777777777,-15.0,,162,162,0,,,,,,,,,,p2,negs,100,right,3.0003470000010566,None,None,,,,,,,,,,,0,162,162,492,284.42659979200107,,,,,,,,,,,,,,,,,,,,,,,,,,,,,,,,,,,,,,,,,,,,,,,,,,,,,,,284.4184146250009,284.42659979200107,284.91300079199937,284.91300079199937,284.98546166699816,284.98546166699816,287.43244670900094,right,3.0003470000010566,None,287.43254920899926,287.43259141700037,None,,,,,,,,,,,,21049999,0,2025-10-17_11h19.50.555,tilt_mocs,2024.2.4,120.1062931082786,2025-10-17 11h19.58.011691 -0400,
1.222222222222222,0.0,,163,163,0,,,,,,,,,,PSE,noss,0,left,1.853732083000068,None,None,,,,,,,,,,,0,163,163,625,287.44274075000067,,,,,,,,,,,,,,,,,,,,,,,,,,,,,,,,,,,,,,,,,,,,,,,,,,,,,,,287.4345346250011,287.44274075000067,287.92996020899955,287.92996020899955,288.00224037500084,288.00224037500084,289.29945204199976,left,1.853732083000068,None,289.2997244590006,289.29985679200036,None,,,,,,,,,,,,21049999,0,2025-10-17_11h19.50.555,tilt_mocs,2024.2.4,120.1062931082786,2025-10-17 11h19.58.011691 -0400,
-1.2777777777777777,-15.0,,164,164,0,,,,,,,,,,PSE,negs,100,left,2.269154375000653,None,None,,,,,,,,,,,0,164,164,427,289.3133227500002,,,,,,,,,,,,,,,,,,,,,,,,,,,,,,,,,,,,,,,,,,,,,,,,,,,,,,,289.3024876249983,289.3133227500002,289.79653999999937,289.79653999999937,289.86850541699823,289.86850541699823,291.58785208399786,left,2.269154375000653,None,291.58797774999766,291.588032833999,None,,,,,,,,,,,,21049999,0,2025-10-17_11h19.50.555,tilt_mocs,2024.2.4,120.1062931082786,2025-10-17 11h19.58.011691 -0400,
-1.2777777777777777,-15.0,,165,165,0,,,,,,,,,,PSE,negs,100,left,1.5488527919987973,None,None,,,,,,,,,,,0,165,165,417,291.59876208399874,,,,,,,,,,,,,,,,,,,,,,,,,,,,,,,,,,,,,,,,,,,,,,,,,,,,,,,291.5901636669987,291.59876208399874,292.08932254200045,292.08932254200045,292.16379945899826,292.16379945899826,293.1502527499979,left,1.5488527919987973,None,293.150387458998,293.1504442919977,None,,,,,,,,,,,,21049999,0,2025-10-17_11h19.50.555,tilt_mocs,2024.2.4,120.1062931082786,2025-10-17 11h19.58.011691 -0400,
1.9166666666666663,15.0,,166,166,0,,,,,,,,,,m3,poss,100,left,1.8871472909995646,None,None,,,,,,,,,,,0,166,166,38,293.1607409169992,,,,,,,,,,,,,,,,,,,,,,,,,,,,,,,,,,,,,,,,,,,,,,,,,,,,,,,293.15267320899875,293.1607409169992,293.64669470900117,293.64669470900117,293.71920895899893,293.71920895899893,295.0587196669985,left,1.8871472909995646,None,295.0588177919999,295.05886112499866,None,,,,,,,,,,,,21049999,0,2025-10-17_11h19.50.555,tilt_mocs,2024.2.4,120.1062931082786,2025-10-17 11h19.58.011691 -0400,
0.2777777777777779,0.0,,167,167,0,,,,,,,,,,m3,noss,0,right,1.5816923749989655,None,None,,,,,,,,,,,0,167,167,570,295.0663330839998,,,,,,,,,,,,,,,,,,,,,,,,,,,,,,,,,,,,,,,,,,,,,,,,,,,,,,,295.0607831669986,295.0663330839998,295.55649054199966,295.55649054199966,295.63079274999836,295.63079274999836,296.6512166249995,right,1.5816923749989655,None,296.6513746669989,296.6514335840002,None,,,,,,,,,,,,21049999,0,2025-10-17_11h19.50.555,tilt_mocs,2024.2.4,120.1062931082786,2025-10-17 11h19.58.011691 -0400,
1.9166666666666663,15.0,,168,168,0,,,,,,,,,,m3,poss,100,right,1.1229435829991417,None,None,,,,,,,,,,,0,168,168,34,296.6622325419994,,,,,,,,,,,,,,,,,,,,,,,,,,,,,,,,,,,,,,,,,,,,,,,,,,,,,,,296.65391020899915,296.6622325419994,297.14674204199764,297.14674204199764,297.21894650000104,297.21894650000104,297.78831845899913,right,1.1229435829991417,None,297.78842104199794,297.78846237499965,None,,,,,,,,,,,,21049999,0,2025-10-17_11h19.50.555,tilt_mocs,2024.2.4,120.1062931082786,2025-10-17 11h19.58.011691 -0400,
-1.2777777777777777,-15.0,,169,169,0,,,,,,,,,,PSE,negs,100,left,1.383579749999626,None,None,,,,,,,,,,,0,169,169,415,297.79930862499896,,,,,,,,,,,,,,,,,,,,,,,,,,,,,,,,,,,,,,,,,,,,,,,,,,,,,,,297.79035091699916,297.79930862499896,298.2891309999977,298.2891309999977,298.3640563339977,298.3640563339977,299.18911429199943,left,1.383579749999626,None,299.1892390840003,299.1892935420001,None,,,,,,,,,,,,21049999,0,2025-10-17_11h19.50.555,tilt_mocs,2024.2.4,120.1062931082786,2025-10-17 11h19.58.011691 -0400,
4.916666666666666,15.0,,170,170,0,,,,,,,,,,p3,poss,100,right,1.249054291001812,None,None,,,,,,,,,,,0,170,170,256,299.1997707499977,,,,,,,,,,,,,,,,,,,,,,,,,,,,,,,,,,,,,,,,,,,,,,,,,,,,,,,299.191479000001,299.1997707499977,299.6891718340012,299.6891718340012,299.7642040419996,299.7642040419996,300.4544004169984,right,1.249054291001812,None,300.454496792001,300.45453941699816,None,,,,,,,,,,,,21049999,0,2025-10-17_11h19.50.555,tilt_mocs,2024.2.4,120.1062931082786,2025-10-17 11h19.58.011691 -0400,
-1.7777777777777777,-15.0,,171,171,0,,,,,,,,,,m1,negs,100,left,1.3375937910022913,None,None,,,,,,,,,,,0,171,171,383,300.464555833998,,,,,,,,,,,,,,,,,,,,,,,,,,,,,,,,,,,,,,,,,,,,,,,,,,,,,,,300.45647754200036,300.464555833998,300.95590779199847,300.95590779199847,301.0309219999981,301.0309219999981,301.8052987919982,left,1.3375937910022913,None,301.80539379199763,301.80543608399967,None,,,,,,,,,,,,21049999,0,2025-10-17_11h19.50.555,tilt_mocs,2024.2.4,120.1062931082786,2025-10-17 11h19.58.011691 -0400,
-0.2777777777777777,-15.0,,172,172,0,,,,,,,,,,p2,negs,100,right,1.2325576250004815,None,None,,,,,,,,,,,0,172,172,493,301.8155044999985,,,,,,,,,,,,,,,,,,,,,,,,,,,,,,,,,,,,,,,,,,,,,,,,,,,,,,,301.8073001669982,301.8155044999985,302.3062911249981,302.3062911249981,302.38088199999765,302.38088199999765,303.05063724999854,right,1.2325576250004815,None,303.0507762919988,303.05084066699783,None,,,,,,,,,,,,21049999,0,2025-10-17_11h19.50.555,tilt_mocs,2024.2.4,120.1062931082786,2025-10-17 11h19.58.011691 -0400,
-0.2777777777777777,-15.0,,173,173,0,,,,,,,,,,p2,negs,100,right,3.7198213750016293,None,None,,,,,,,,,,,0,173,173,506,303.0615207499977,,,,,,,,,,,,,,,,,,,,,,,,,,,,,,,,,,,,,,,,,,,,,,,,,,,,,,,303.0532175420012,303.0615207499977,303.54734045900113,303.54734045900113,303.6197889169998,303.6197889169998,306.78429779200087,right,3.7198213750016293,None,306.7844374169981,306.78449308400013,None,,,,,,,,,,,,21049999,0,2025-10-17_11h19.50.555,tilt_mocs,2024.2.4,120.1062931082786,2025-10-17 11h19.58.011691 -0400,
-2.7777777777777777,-15.0,,174,174,0,,,,,,,,,,m3,negs,100,right,1.2623814590006077,None,None,,,,,,,,,,,0,174,174,301,306.7950930420011,,,,,,,,,,,,,,,,,,,,,,,,,,,,,,,,,,,,,,,,,,,,,,,,,,,,,,,306.7866058340005,306.7950930420011,307.28058333399895,307.28058333399895,307.3524304169987,307.3524304169987,308.0664777919992,right,1.2623814590006077,None,308.0666026250001,308.06665783399876,None,,,,,,,,,,,,21049999,0,2025-10-17_11h19.50.555,tilt_mocs,2024.2.4,120.1062931082786,2025-10-17 11h19.58.011691 -0400,
3.9166666666666665,15.0,,175,175,0,,,,,,,,,,p1,poss,100,left,1.06999249999717,None,None,,,,,,,,,,,0,175,175,167,308.0770664169977,,,,,,,,,,,,,,,,,,,,,,,,,,,,,,,,,,,,,,,,,,,,,,,,,,,,,,,308.06879216699963,308.0770664169977,308.5639822089979,308.5639822089979,308.63616970899966,308.63616970899966,309.1498791249978,left,1.06999249999717,None,309.1499845840008,309.1500378339988,None,,,,,,,,,,,,21049999,0,2025-10-17_11h19.50.555,tilt_mocs,2024.2.4,120.1062931082786,2025-10-17 11h19.58.011691 -0400,
-2.2777777777777777,-15.0,,176,176,0,,,,,,,,,,m2,negs,100,right,1.072225415999128,None,None,,,,,,,,,,,0,176,176,357,309.15984229199967,,,,,,,,,,,,,,,,,,,,,,,,,,,,,,,,,,,,,,,,,,,,,,,,,,,,,,,309.151918749998,309.15984229199967,309.6465954589985,309.6465954589985,309.7197715420007,309.7197715420007,310.24310412499835,right,1.072225415999128,None,310.2432001249981,310.2432415839976,None,,,,,,,,,,,,21049999,0,2025-10-17_11h19.50.555,tilt_mocs,2024.2.4,120.1062931082786,2025-10-17 11h19.58.011691 -0400,
3.9166666666666665,15.0,,177,177,0,,,,,,,,,,p1,poss,100,right,1.068240667002101,None,None,,,,,,,,,,,0,177,177,186,310.24984224999935,,,,,,,,,,,,,,,,,,,,,,,,,,,,,,,,,,,,,,,,,,,,,,,,,,,,,,,310.2451190840002,310.24984224999935,310.73943033400064,310.73943033400064,310.81453150000016,310.81453150000016,311.32182575000115,right,1.068240667002101,None,311.32194874999914,311.3220032499994,None,,,,,,,,,,,,21049999,0,2025-10-17_11h19.50.555,tilt_mocs,2024.2.4,120.1062931082786,2025-10-17 11h19.58.011691 -0400,
-2.2777777777777777,-15.0,,178,178,0,,,,,,,,,,m2,negs,100,left,2.300546166999993,None,None,,,,,,,,,,,0,178,178,321,311.3475370419983,,,,,,,,,,,,,,,,,,,,,,,,,,,,,,,,,,,,,,,,,,,,,,,,,,,,,,,311.32401404199845,311.3475370419983,311.82265129200096,311.82265129200096,311.89787612500004,311.89787612500004,313.6506085000001,left,2.300546166999993,None,313.6507424169977,313.6508127089983,None,,,,,,,,,,,,21049999,0,2025-10-17_11h19.50.555,tilt_mocs,2024.2.4,120.1062931082786,2025-10-17 11h19.58.011691 -0400,
-0.7777777777777777,-15.0,,179,179,0,,,,,,,,,,p1,negs,100,right,0.9935837090015411,None,None,,,,,,,,,,,0,179,179,476,313.6613525419998,,,,,,,,,,,,,,,,,,,,,,,,,,,,,,,,,,,,,,,,,,,,,,,,,,,,,,,313.65317858399794,313.6613525419998,314.14744087500003,314.14744087500003,314.21983495899985,314.21983495899985,314.6667907089977,right,0.9935837090015411,None,314.6668906249979,314.6669316669977,None,,,,,,,,,,,,21049999,0,2025-10-17_11h19.50.555,tilt_mocs,2024.2.4,120.1062931082786,2025-10-17 11h19.58.011691 -0400,
-0.7777777777777777,-15.0,,180,180,0,,,,,,,,,,p1,negs,100,right,1.4881734580012562,None,None,,,,,,,,,,,0,180,180,451,314.67692974999954,,,,,,,,,,,,,,,,,,,,,,,,,,,,,,,,,,,,,,,,,,,,,,,,,,,,,,,314.66883925,314.67692974999954,315.16407070900095,315.16407070900095,315.23685312499947,315.23685312499947,316.16782145899924,right,1.4881734580012562,None,316.167978958998,316.1680396669981,None,,,,,,,,,,,,21049999,0,2025-10-17_11h19.50.555,tilt_mocs,2024.2.4,120.1062931082786,2025-10-17 11h19.58.011691 -0400,
0.2222222222222221,0.0,,181,181,0,,,,,,,,,,m2,noss,0,right,1.1909384579994367,None,None,,,,,,,,,,,0,181,181,597,316.17931379199945,,,,,,,,,,,,,,,,,,,,,,,,,,,,,,,,,,,,,,,,,,,,,,,,,,,,,,,316.1710721249983,316.17931379199945,316.6641207499997,316.6641207499997,316.7376035419984,316.7376035419984,317.37282716700065,right,1.1909384579994367,None,317.3729505839983,317.37300366699856,None,,,,,,,,,,,,21049999,0,2025-10-17_11h19.50.555,tilt_mocs,2024.2.4,120.1062931082786,2025-10-17 11h19.58.011691 -0400,
