center,surround,correct,opacity,practice_no_time.thisRepN,practice_no_time.thisTrialN,practice_no_time.thisN,practice_no_time.thisIndex,practice_timed.thisRepN,practice_timed.thisTrialN,practice_timed.thisN,practice_timed.thisIndex,blocks.thisRepN,blocks.thisTrialN,blocks.thisN,blocks.thisIndex,thisRow.t,notes,instr.started,text_5.started,key_resp_2.started,instr.stopped,key_resp_2.keys,key_resp_2.rt,key_resp_2.duration,instr2.started,text_6.started,key_resp_6.started,instr2.stopped,key_resp_6.keys,key_resp_6.rt,key_resp_6.duration,practice_trial.started,key_resp_3.started,surround_practice.started,center_practice.started,practice_trial.stopped,key_resp_3.keys,key_resp_3.corr,key_resp_3.rt,key_resp_3.duration,practice_feedback.started,text_7.started,practice_feedback.stopped,instr3.started,text_8.started,key_resp_5.started,instr3.stopped,key_resp_5.keys,key_resp_5.rt,key_resp_5.duration,practice_trial_timed.started,key_resp_4.started,surround_practice_2.started,center_practice_2.started,text_12.started,surround_practice_2.stopped,center_practice_2.stopped,practice_trial_timed.stopped,key_resp_4.keys,key_resp_4.corr,key_resp_4.rt,key_resp_4.duration,text_7.stopped,start_instr.started,text_13.started,key_resp_8.started,start_instr.stopped,key_resp_8.keys,key_resp_8.rt,key_resp_8.duration,trials.label,trials.nReps,trials.startVal,trials.maxVal,trials.minVal,trials.stepSizes,trials.stepType,trials.nUp,trials.nDown,trials.nReversals,trials.thisIndex,trials.thisRepN,trials.thisN,trials.direction,trials.stepSize,trials.intensity,trial.started,center_angle,surround_angle,resp.started,surround_grating.started,center_grating.started,text_3.started,surround_grating.stopped,center_grating.stopped,trial.stopped,trials.response,break_2.started,text_14.started,key_resp_9.started,break_2.stopped,key_resp_9.keys,key_resp_9.rt,key_resp_9.duration,end.started,text_4.started,key_resp.started,end.stopped,key_resp.keys,key_resp.rt,key_resp.duration,sub,ses,date,expName,psychopyVersion,frameRate,expStart,
,,,,,,,,,,,,,,,,,,0.00967349999700673,0.017146291000244673,0.017146291000244673,2.6082982500010985,space,2.5880256250020466,None,,,,,,,,,,,,,,,,,,,,,,,,,,,,,,,,,,,,,,,,,,,,,,,,,,,,,,,,,,,,,,,,,,,,,,,,,,,,,,,,,,,,,,,,sofia,0,2025-08-22_14h44.23.095,tilt_staircase,2023.2.3,120.25361535349536,2025-08-22 14h44.45.271470 -0400,
,,,,,,,,,,,,,,,,,,,,,,,,,2.6083407499972964,2.6190030409998144,2.6190030409998144,6.917102708001039,space,4.294605249997403,None,,,,,,,,,,,,,,,,,,,,,,,,,,,,,,,,,,,,,,,,,,,,,,,,,,,,,,,,,,,,,,,,,,,,,,,,,,,,,,,,,sofia,0,2025-08-22_14h44.23.095,tilt_staircase,2023.2.3,120.25361535349536,2025-08-22 14h44.45.271470 -0400,
30,0,right,,0,0,0,0,,,,,,,,,6.938076624996029,,,,,,,,,,,,,,,,6.928742374999274,6.938076624996029,7.432081790997472,7.432081790997472,8.317361624998739,right,1,1.3707323339986033,None,8.31824433300062,8.358574457997747,9.824123665996012,,,,,,,,,,,,,,,,,,,,,,,,,,,,,,,,,,,,,,,,,,,,,,,,,,,,,,,,,,,,,,,,,,,,,sofia,0,2025-08-22_14h44.23.095,tilt_staircase,2023.2.3,120.25361535349536,2025-08-22 14h44.45.271470 -0400,
-30,0,left,,0,1,1,1,,,,,,,,,9.832888165998156,,,,,,,,,,,,,,,,9.82460754099884,9.832888165998156,10.327771457996278,10.327771457996278,10.890407665996463,left,1,1.0531605829964974,None,10.890940625002258,10.91640179100068,12.399940249997599,,,,,,,,,,,,,,,,,,,,,,,,,,,,,,,,,,,,,,,,,,,,,,,,,,,,,,,,,,,,,,,,,,,,,sofia,0,2025-08-22_14h44.23.095,tilt_staircase,2023.2.3,120.25361535349536,2025-08-22 14h44.45.271470 -0400,
30,60,right,,0,2,2,2,,,,,,,,,12.407080083001347,,,,,,,,,,,,,,,,12.400451790999796,12.407080083001347,12.895184250002785,12.895184250002785,13.657546333000937,right,1,1.2458229170006234,None,13.658075749997806,13.683122041002207,15.166632957996626,,,,,,,,,,,,,,,,,,,,,,,,,,,,,,,,,,,,,,,,,,,,,,,,,,,,,,,,,,,,,,,,,,,,,sofia,0,2025-08-22_14h44.23.095,tilt_staircase,2023.2.3,120.25361535349536,2025-08-22 14h44.45.271470 -0400,
-30,-60,left,,0,3,3,3,,,,,,,,,15.17212441599986,,,,,,,,,,,,,,,,15.166888457999448,15.17212441599986,15.66085741599818,15.66085741599818,16.408261625001614,left,1,1.2326605839989497,None,16.408782250000513,16.41861845800304,17.91650770799606,,,,,,,,,,,,,,,,,,,,,,,,,,,,,,,,,,,,,,,,,,,,,,,,,,,,,,,,,,,,,,,,,,,,,sofia,0,2025-08-22_14h44.23.095,tilt_staircase,2023.2.3,120.25361535349536,2025-08-22 14h44.45.271470 -0400,
,,,,,,,,,,,,,,,,,,,,,,,,,,,,,,,,,,,,,,,,,,,,17.91658862499753,17.92349458300305,17.92349458300305,19.924560207997274,space,1.9932870409975294,None,,,,,,,,,,,,,,,,,,,,,,,,,,,,,,,,,,,,,,,,,,,,,,,,,,,,,,,,,,,,,,sofia,0,2025-08-22_14h44.23.095,tilt_staircase,2023.2.3,120.25361535349536,2025-08-22 14h44.45.271470 -0400,
-30,-60,left,100,,,,,0,0,0,0,,,,,19.94163408299937,,,,,,,,,,,,,,,,,,,,,,,,,21.367828041002213,21.374048208002932,22.86707770799694,,,,,,,,19.932267208001576,19.94163408299937,20.42973683300079,20.42973683300079,20.508624166002846,20.51540345799731,20.51540345799731,21.367087874998106,left,1,1.4150335829981486,None,22.87280437500158,,,,,,,,,,,,,,,,,,,,,,,,,,,,,,,,,,,,,,,,,,,,,,,,,sofia,0,2025-08-22_14h44.23.095,tilt_staircase,2023.2.3,120.25361535349536,2025-08-22 14h44.45.271470 -0400,
-30,0,left,100,,,,,0,1,1,1,,,,,22.87280437500158,,,,,,,,,,,,,,,,,,,,,,,,,23.957823999997345,23.966072582996276,25.45787174999714,,,,,,,,22.86747308300255,22.87280437500158,23.378112416001386,23.378112416001386,23.44954937500006,23.456639625001117,23.456639625001117,23.957382957996742,left,1,1.0789937079971423,None,25.46633687499707,,,,,,,,,,,,,,,,,,,,,,,,,,,,,,,,,,,,,,,,,,,,,,,,,sofia,0,2025-08-22_14h44.23.095,tilt_staircase,2023.2.3,120.25361535349536,2025-08-22 14h44.45.271470 -0400,
30,60,right,100,,,,,0,2,2,2,,,,,25.46633687499707,,,,,,,,,,,,,,,,,,,,,,,,,26.318214833001548,26.327071833002265,27.823264999999083,,,,,,,,25.45828283300216,25.46633687499707,25.960334458002762,25.960334458002762,26.041369500002475,26.041369500002475,26.041369500002475,26.31768116600142,right,1,0.8419823340009316,None,,,,,,,,,,,,,,,,,,,,,,,,,,,,,,,,,,,,,,,,,,,,,,,,,,sofia,0,2025-08-22_14h44.23.095,tilt_staircase,2023.2.3,120.25361535349536,2025-08-22 14h44.45.271470 -0400,
30,0,right,100,,,,,0,3,3,3,,,,,27.83348633300193,,,,,,,,,,,,,,,,,,,,,,,,,28.7579277909972,28.76619966600265,30.26693762499781,,,,,,,,27.823715291000553,27.83348633300193,28.32772916599788,28.32772916599788,28.39963262499805,28.406592040999385,28.406592040999385,28.75747441600106,right,1,0.9187573749950388,None,,,,,,,,,,,,,,,,,,,,,,,,,,,,,,,,,,,,,,,,,,,,,,,,,,sofia,0,2025-08-22_14h44.23.095,tilt_staircase,2023.2.3,120.25361535349536,2025-08-22 14h44.45.271470 -0400,
-30,69,left,0,,,,,0,4,4,4,,,,,30.272874957998283,,,,,,,,,,,,,,,,,,,,,,,,,32.241891874997236,32.25037104100193,33.75017666599888,,,,,,,,30.26733675000287,30.272874957998283,30.76018833299895,30.76018833299895,30.841285707996576,30.841285707996576,30.841285707996576,32.241357665996475,left,1,1.9652041669978644,None,,,,,,,,,,,,,,,,,,,,,,,,,,,,,,,,,,,,,,,,,,,,,,,,,,sofia,0,2025-08-22_14h44.23.095,tilt_staircase,2023.2.3,120.25361535349536,2025-08-22 14h44.45.271470 -0400,
30,69,right,0,,,,,0,5,5,5,,,,,33.756345458001306,,,,,,,,,,,,,,,,,,,,,,,,,34.83531170799688,34.84395808300178,36.34067562499695,,,,,,,,33.750675374998536,33.756345458001306,34.244722415998694,34.244722415998694,34.32379837500048,34.32379837500048,34.32379837500048,34.83477720800147,right,1,1.0770522079983493,None,,,,,,,,,,,,,,,,,,,,,,,,,,,,,,,,,,,,,,,,,,,,,,,,,,sofia,0,2025-08-22_14h44.23.095,tilt_staircase,2023.2.3,120.25361535349536,2025-08-22 14h44.45.271470 -0400,
,,,,,,,,,,,,,,,,,,,,,,,,,,,,,,,,,,,,,,,,,,,,,,,,,,,,,,,,,,,,,,,,36.34078162499645,36.34967437500018,36.34967437500018,41.14121441599855,space,4.788408291999076,None,,,,,,,,,,,,,,,,,,,,,,,,,,,,,,,,,,,,,,,,,,sofia,0,2025-08-22_14h44.23.095,tilt_staircase,2023.2.3,120.25361535349536,2025-08-22 14h44.45.271470 -0400,
,,,,,,,,,,,,0,0,0,0,41.27666995800246,,,,,,,,,,,,,,,,,,,,,,,,,,,,,,,,,,,,,,,,,,,,,,,,,,,,,,,posc_negs,30,15,15,-15,"[5, 2, 1, 0.5]",lin,1,1,8,1,1,0,start,5,15,41.27028491599776,15,-30,41.27666995800246,41.64807308300078,41.64807308300078,41.725390708001214,41.732370375000755,41.732370375000755,42.35094633299741,1,,,,,,,,,,,,,,,sofia,0,2025-08-22_14h44.23.095,tilt_staircase,2023.2.3,120.25361535349536,2025-08-22 14h44.45.271470 -0400,
,,,,,,,,,,,,0,0,0,0,42.35948887500126,,,,,,,,,,,,,,,,,,,,,,,,,,,,,,,,,,,,,,,,,,,,,,,,,,,,,,,negc_noss,30,-15,15,-15,"[5, 2, 1, 0.5]",lin,1,1,8,4,1,1,start,5,-15,42.35119466600008,-15,,42.35948887500126,42.86110662500141,42.86110662500141,42.93307349999668,42.94014687500021,42.94014687500021,43.484350250000716,0,,,,,,,,,,,,,,,sofia,0,2025-08-22_14h44.23.095,tilt_staircase,2023.2.3,120.25361535349536,2025-08-22 14h44.45.271470 -0400,
,,,,,,,,,,,,0,0,0,0,43.49230329100101,,,,,,,,,,,,,,,,,,,,,,,,,,,,,,,,,,,,,,,,,,,,,,,,,,,,,,,posc_noss,30,15,15,-15,"[5, 2, 1, 0.5]",lin,1,1,8,5,1,2,start,5,15,43.48455487500178,15,,43.49230329100101,43.99429687499651,43.99429687499651,44.066439707996324,44.07344524999644,44.07344524999644,44.58419558299647,1,,,,,,,,,,,,,,,sofia,0,2025-08-22_14h44.23.095,tilt_staircase,2023.2.3,120.25361535349536,2025-08-22 14h44.45.271470 -0400,
,,,,,,,,,,,,0,0,0,0,44.59282449999591,,,,,,,,,,,,,,,,,,,,,,,,,,,,,,,,,,,,,,,,,,,,,,,,,,,,,,,negc_negs,30,-15,15,-15,"[5, 2, 1, 0.5]",lin,1,1,8,0,1,3,start,5,-15,44.58443708300183,-15,-30,44.59282449999591,45.09473604099912,45.09473604099912,45.16640879100305,45.17290295800194,45.17290295800194,45.97772370799794,0,,,,,,,,,,,,,,,sofia,0,2025-08-22_14h44.23.095,tilt_staircase,2023.2.3,120.25361535349536,2025-08-22 14h44.45.271470 -0400,
,,,,,,,,,,,,0,0,0,0,45.98336129100062,,,,,,,,,,,,,,,,,,,,,,,,,,,,,,,,,,,,,,,,,,,,,,,,,,,,,,,posc_poss,30,15,15,-15,"[5, 2, 1, 0.5]",lin,1,1,8,3,1,4,start,5,15,45.97792662499705,15,30,45.98336129100062,46.48430562500289,46.48430562500289,46.55854283300141,46.56665429099667,46.56665429099667,47.28458570800285,1,,,,,,,,,,,,,,,sofia,0,2025-08-22_14h44.23.095,tilt_staircase,2023.2.3,120.25361535349536,2025-08-22 14h44.45.271470 -0400,
,,,,,,,,,,,,0,0,0,0,47.29312170799676,,,,,,,,,,,,,,,,,,,,,,,,,,,,,,,,,,,,,,,,,,,,,,,,,,,,,,,negc_poss,30,-15,15,-15,"[5, 2, 1, 0.5]",lin,1,1,8,2,1,5,start,5,-15,47.284833582998544,-15,30,47.29312170799676,47.79465162500128,47.79465162500128,47.866457750002155,47.87350037499709,47.87350037499709,48.45157262500288,0,,,,,,,,,,,,,,,sofia,0,2025-08-22_14h44.23.095,tilt_staircase,2023.2.3,120.25361535349536,2025-08-22 14h44.45.271470 -0400,
,,,,,,,,,,,,0,0,0,0,48.46019054100179,,,,,,,,,,,,,,,,,,,,,,,,,,,,,,,,,,,,,,,,,,,,,,,,,,,,,,,posc_noss,30,15,15,-15,"[5, 2, 1, 0.5]",lin,1,1,8,5,2,6,down,5,10,48.45189541600121,10,,48.46019054100179,48.961012833002314,48.961012833002314,49.03255379100301,49.03903458300192,49.03903458300192,49.53455350000149,1,,,,,,,,,,,,,,,sofia,0,2025-08-22_14h44.23.095,tilt_staircase,2023.2.3,120.25361535349536,2025-08-22 14h44.45.271470 -0400,
,,,,,,,,,,,,0,0,0,0,49.54331383299723,,,,,,,,,,,,,,,,,,,,,,,,,,,,,,,,,,,,,,,,,,,,,,,,,,,,,,,posc_poss,30,15,15,-15,"[5, 2, 1, 0.5]",lin,1,1,8,3,2,7,down,5,10,49.53479520799738,10,30,49.54331383299723,50.04473895800038,50.04473895800038,50.1165039999978,50.12419399999635,50.12419399999635,51.08445799999754,1,,,,,,,,,,,,,,,sofia,0,2025-08-22_14h44.23.095,tilt_staircase,2023.2.3,120.25361535349536,2025-08-22 14h44.45.271470 -0400,
,,,,,,,,,,,,0,0,0,0,51.093116875003034,,,,,,,,,,,,,,,,,,,,,,,,,,,,,,,,,,,,,,,,,,,,,,,,,,,,,,,negc_negs,30,-15,15,-15,"[5, 2, 1, 0.5]",lin,1,1,8,0,2,8,up,5,-10,51.084706832996744,-10,-30,51.093116875003034,51.594364333002886,51.594364333002886,51.666504207998514,51.67347037499712,51.67347037499712,52.30150033300015,0,,,,,,,,,,,,,,,sofia,0,2025-08-22_14h44.23.095,tilt_staircase,2023.2.3,120.25361535349536,2025-08-22 14h44.45.271470 -0400,
,,,,,,,,,,,,0,0,0,0,52.30996249999589,,,,,,,,,,,,,,,,,,,,,,,,,,,,,,,,,,,,,,,,,,,,,,,,,,,,,,,posc_negs,30,15,15,-15,"[5, 2, 1, 0.5]",lin,1,1,8,1,2,9,down,5,10,52.30174141599855,10,-30,52.30996249999589,52.81139604099735,52.81139604099735,52.88330187500105,52.88982233299612,52.88982233299612,53.50811870799953,1,,,,,,,,,,,,,,,sofia,0,2025-08-22_14h44.23.095,tilt_staircase,2023.2.3,120.25361535349536,2025-08-22 14h44.45.271470 -0400,
,,,,,,,,,,,,0,0,0,0,53.51649641599943,,,,,,,,,,,,,,,,,,,,,,,,,,,,,,,,,,,,,,,,,,,,,,,,,,,,,,,negc_poss,30,-15,15,-15,"[5, 2, 1, 0.5]",lin,1,1,8,2,2,10,up,5,-10,53.50835891599854,-10,30,53.51649641599943,54.01128337500268,54.01128337500268,54.091175415996986,54.091175415996986,54.091175415996986,54.69154029100173,0,,,,,,,,,,,,,,,sofia,0,2025-08-22_14h44.23.095,tilt_staircase,2023.2.3,120.25361535349536,2025-08-22 14h44.45.271470 -0400,
,,,,,,,,,,,,0,0,0,0,54.69966050000221,,,,,,,,,,,,,,,,,,,,,,,,,,,,,,,,,,,,,,,,,,,,,,,,,,,,,,,negc_noss,30,-15,15,-15,"[5, 2, 1, 0.5]",lin,1,1,8,4,2,11,up,5,-10,54.69174041599763,-10,,54.69966050000221,55.194707750000816,55.194707750000816,55.27513608300069,55.27513608300069,55.27513608300069,55.86772458299674,0,,,,,,,,,,,,,,,sofia,0,2025-08-22_14h44.23.095,tilt_staircase,2023.2.3,120.25361535349536,2025-08-22 14h44.45.271470 -0400,
,,,,,,,,,,,,0,0,0,0,55.87640120799915,,,,,,,,,,,,,,,,,,,,,,,,,,,,,,,,,,,,,,,,,,,,,,,,,,,,,,,posc_negs,30,15,15,-15,"[5, 2, 1, 0.5]",lin,1,1,8,1,3,12,down,5,5,55.86798337499931,5,-30,55.87640120799915,56.377861875000235,56.377861875000235,56.44991129099799,56.456861165999726,56.456861165999726,57.03470095800003,1,,,,,,,,,,,,,,,sofia,0,2025-08-22_14h44.23.095,tilt_staircase,2023.2.3,120.25361535349536,2025-08-22 14h44.45.271470 -0400,
,,,,,,,,,,,,0,0,0,0,57.04331424999691,,,,,,,,,,,,,,,,,,,,,,,,,,,,,,,,,,,,,,,,,,,,,,,,,,,,,,,negc_negs,30,-15,15,-15,"[5, 2, 1, 0.5]",lin,1,1,8,0,3,13,up,5,-5,57.03494020800281,-5,-30,57.04331424999691,57.54472741599602,57.54472741599602,57.6165465410013,57.62348183299764,57.62348183299764,58.74151995799912,0,,,,,,,,,,,,,,,sofia,0,2025-08-22_14h44.23.095,tilt_staircase,2023.2.3,120.25361535349536,2025-08-22 14h44.45.271470 -0400,
,,,,,,,,,,,,0,0,0,0,58.750204249998205,,,,,,,,,,,,,,,,,,,,,,,,,,,,,,,,,,,,,,,,,,,,,,,,,,,,,,,negc_poss,30,-15,15,-15,"[5, 2, 1, 0.5]",lin,1,1,8,2,3,14,up,5,-5,58.741765375001705,-5,30,58.750204249998205,59.24462583300192,59.24462583300192,59.32388312499825,59.32388312499825,59.32388312499825,59.93457570800092,0,,,,,,,,,,,,,,,sofia,0,2025-08-22_14h44.23.095,tilt_staircase,2023.2.3,120.25361535349536,2025-08-22 14h44.45.271470 -0400,
,,,,,,,,,,,,0,0,0,0,59.942837875001715,,,,,,,,,,,,,,,,,,,,,,,,,,,,,,,,,,,,,,,,,,,,,,,,,,,,,,,posc_poss,30,15,15,-15,"[5, 2, 1, 0.5]",lin,1,1,8,3,3,15,down,5,5,59.934783290998894,5,30,59.942837875001715,60.44434108299902,60.44434108299902,60.51666579100129,60.523781791001966,60.523781791001966,61.50883054100268,1,,,,,,,,,,,,,,,sofia,0,2025-08-22_14h44.23.095,tilt_staircase,2023.2.3,120.25361535349536,2025-08-22 14h44.45.271470 -0400,
,,,,,,,,,,,,0,0,0,0,61.517397290997906,,,,,,,,,,,,,,,,,,,,,,,,,,,,,,,,,,,,,,,,,,,,,,,,,,,,,,,posc_noss,30,15,15,-15,"[5, 2, 1, 0.5]",lin,1,1,8,5,3,16,down,5,5,61.50907554099831,5,,61.517397290997906,62.010856207998586,62.010856207998586,62.091944207997585,62.091944207997585,62.091944207997585,62.72459945800074,1,,,,,,,,,,,,,,,sofia,0,2025-08-22_14h44.23.095,tilt_staircase,2023.2.3,120.25361535349536,2025-08-22 14h44.45.271470 -0400,
,,,,,,,,,,,,0,0,0,0,62.732846332997724,,,,,,,,,,,,,,,,,,,,,,,,,,,,,,,,,,,,,,,,,,,,,,,,,,,,,,,negc_noss,30,-15,15,-15,"[5, 2, 1, 0.5]",lin,1,1,8,4,3,17,up,5,-5,62.7248042909996,-5,,62.732846332997724,63.22851624999748,63.22851624999748,63.307805040996755,63.307805040996755,63.307805040996755,63.82525458299642,0,,,,,,,,,,,,,,,sofia,0,2025-08-22_14h44.23.095,tilt_staircase,2023.2.3,120.25361535349536,2025-08-22 14h44.45.271470 -0400,
,,,,,,,,,,,,0,0,0,0,63.83348179099994,,,,,,,,,,,,,,,,,,,,,,,,,,,,,,,,,,,,,,,,,,,,,,,,,,,,,,,posc_poss,30,15,15,-15,"[5, 2, 1, 0.5]",lin,1,1,8,3,4,18,down,5,0,63.8255158749962,0,30,63.83348179099994,64.32846562499617,64.32846562499617,64.40773754099791,64.40773754099791,64.40773754099791,64.95106545800081,0,,,,,,,,,,,,,,,sofia,0,2025-08-22_14h44.23.095,tilt_staircase,2023.2.3,120.25361535349536,2025-08-22 14h44.45.271470 -0400,
,,,,,,,,,,,,0,0,0,0,64.95640624999942,,,,,,,,,,,,,,,,,,,,,,,,,,,,,,,,,,,,,,,,,,,,,,,,,,,,,,,negc_negs,30,-15,15,-15,"[5, 2, 1, 0.5]",lin,1,1,8,0,4,19,up,5,0,64.95129487499798,0,-30,64.95640624999942,65.46043637499679,65.46043637499679,65.53331120799703,65.54030891600269,65.54030891600269,66.35061841599963,1,,,,,,,,,,,,,,,sofia,0,2025-08-22_14h44.23.095,tilt_staircase,2023.2.3,120.25361535349536,2025-08-22 14h44.45.271470 -0400,
,,,,,,,,,,,,0,0,0,0,66.35591245799878,,,,,,,,,,,,,,,,,,,,,,,,,,,,,,,,,,,,,,,,,,,,,,,,,,,,,,,negc_noss,30,-15,15,-15,"[5, 2, 1, 0.5]",lin,1,1,8,4,4,20,up,5,0,66.35082208299718,0,,66.35591245799878,66.86065295799926,66.86065295799926,66.93335637499695,66.94045862500207,66.94045862500207,67.56832983299682,0,,,,,,,,,,,,,,,sofia,0,2025-08-22_14h44.23.095,tilt_staircase,2023.2.3,120.25361535349536,2025-08-22 14h44.45.271470 -0400,
,,,,,,,,,,,,0,0,0,0,67.57649125000171,,,,,,,,,,,,,,,,,,,,,,,,,,,,,,,,,,,,,,,,,,,,,,,,,,,,,,,posc_noss,30,15,15,-15,"[5, 2, 1, 0.5]",lin,1,1,8,5,4,21,down,5,0,67.56857029099774,0,,67.57649125000171,68.0781452500014,68.0781452500014,68.15003599999909,68.15691125000012,68.15691125000012,68.85835945799772,0,,,,,,,,,,,,,,,sofia,0,2025-08-22_14h44.23.095,tilt_staircase,2023.2.3,120.25361535349536,2025-08-22 14h44.45.271470 -0400,
,,,,,,,,,,,,0,0,0,0,68.86669062500005,,,,,,,,,,,,,,,,,,,,,,,,,,,,,,,,,,,,,,,,,,,,,,,,,,,,,,,posc_negs,30,15,15,-15,"[5, 2, 1, 0.5]",lin,1,1,8,1,4,22,down,5,0,68.85860425000283,0,-30,68.86669062500005,69.36144008299743,69.36144008299743,69.44134466599644,69.44134466599644,69.44134466599644,69.99137099999643,1,,,,,,,,,,,,,,,sofia,0,2025-08-22_14h44.23.095,tilt_staircase,2023.2.3,120.25361535349536,2025-08-22 14h44.45.271470 -0400,
,,,,,,,,,,,,0,0,0,0,69.99976029100071,,,,,,,,,,,,,,,,,,,,,,,,,,,,,,,,,,,,,,,,,,,,,,,,,,,,,,,negc_poss,30,-15,15,-15,"[5, 2, 1, 0.5]",lin,1,1,8,2,4,23,up,5,0,69.9916113329964,0,30,69.99976029100071,70.49412091600243,70.49412091600243,70.57519708300242,70.57519708300242,70.57519708300242,71.10160529099812,0,,,,,,,,,,,,,,,sofia,0,2025-08-22_14h44.23.095,tilt_staircase,2023.2.3,120.25361535349536,2025-08-22 14h44.45.271470 -0400,
,,,,,,,,,,,,0,0,0,0,71.10999416599952,,,,,,,,,,,,,,,,,,,,,,,,,,,,,,,,,,,,,,,,,,,,,,,,,,,,,,,posc_poss,30,15,15,-15,"[5, 2, 1, 0.5]",lin,1,1,8,3,5,24,up,2,2,71.10186391600291,2,30,71.10999416599952,71.61125875000289,71.61125875000289,71.68336366600124,71.69021879100183,71.69021879100183,72.31817099999898,0,,,,,,,,,,,,,,,sofia,0,2025-08-22_14h44.23.095,tilt_staircase,2023.2.3,120.25361535349536,2025-08-22 14h44.45.271470 -0400,
,,,,,,,,,,,,0,0,0,0,72.32696966599906,,,,,,,,,,,,,,,,,,,,,,,,,,,,,,,,,,,,,,,,,,,,,,,,,,,,,,,negc_poss,30,-15,15,-15,"[5, 2, 1, 0.5]",lin,1,1,8,2,5,25,up,5,5,72.31842045800295,5,30,72.32696966599906,72.82871754100051,72.82871754100051,72.90011924999999,72.90711604100215,72.90711604100215,73.55885012500221,0,,,,,,,,,,,,,,,sofia,0,2025-08-22_14h44.23.095,tilt_staircase,2023.2.3,120.25361535349536,2025-08-22 14h44.45.271470 -0400,
,,,,,,,,,,,,0,0,0,0,73.56699904100242,,,,,,,,,,,,,,,,,,,,,,,,,,,,,,,,,,,,,,,,,,,,,,,,,,,,,,,negc_negs,30,-15,15,-15,"[5, 2, 1, 0.5]",lin,1,1,8,0,5,26,down,2,-2,73.55909470799816,-2,-30,73.56699904100242,74.06026949999796,74.06026949999796,74.14202262499748,74.14202262499748,74.14202262499748,76.15183874999639,0,,,,,,,,,,,,,,,sofia,0,2025-08-22_14h44.23.095,tilt_staircase,2023.2.3,120.25361535349536,2025-08-22 14h44.45.271470 -0400,
,,,,,,,,,,,,0,0,0,0,76.1602285409972,,,,,,,,,,,,,,,,,,,,,,,,,,,,,,,,,,,,,,,,,,,,,,,,,,,,,,,posc_negs,30,15,15,-15,"[5, 2, 1, 0.5]",lin,1,1,8,1,5,27,down,5,-5,76.15205095800047,-5,-30,76.1602285409972,76.66171304100135,76.66171304100135,76.73289695799758,76.7398669999966,76.7398669999966,77.5844126660013,0,,,,,,,,,,,,,,,sofia,0,2025-08-22_14h44.23.095,tilt_staircase,2023.2.3,120.25361535349536,2025-08-22 14h44.45.271470 -0400,
,,,,,,,,,,,,0,0,0,0,77.59262616599881,,,,,,,,,,,,,,,,,,,,,,,,,,,,,,,,,,,,,,,,,,,,,,,,,,,,,,,negc_noss,30,-15,15,-15,"[5, 2, 1, 0.5]",lin,1,1,8,4,5,28,up,5,5,77.5846180410008,5,,77.59262616599881,78.09392904100241,78.09392904100241,78.16676079099852,78.17387525000231,78.17387525000231,78.65843341599975,1,,,,,,,,,,,,,,,sofia,0,2025-08-22_14h44.23.095,tilt_staircase,2023.2.3,120.25361535349536,2025-08-22 14h44.45.271470 -0400,
,,,,,,,,,,,,0,0,0,0,78.66656433299795,,,,,,,,,,,,,,,,,,,,,,,,,,,,,,,,,,,,,,,,,,,,,,,,,,,,,,,posc_noss,30,15,15,-15,"[5, 2, 1, 0.5]",lin,1,1,8,5,5,29,up,2,2,78.65864133300056,2,,78.66656433299795,79.16198729100142,79.16198729100142,79.2418258329999,79.2418258329999,79.2418258329999,80.1182087499983,1,,,,,,,,,,,,,,,sofia,0,2025-08-22_14h44.23.095,tilt_staircase,2023.2.3,120.25361535349536,2025-08-22 14h44.45.271470 -0400,
,,,,,,,,,,,,0,0,0,0,80.12637891600025,,,,,,,,,,,,,,,,,,,,,,,,,,,,,,,,,,,,,,,,,,,,,,,,,,,,,,,negc_noss,30,-15,15,-15,"[5, 2, 1, 0.5]",lin,1,1,8,4,6,30,down,2,3,80.11843316599698,3,,80.12637891600025,80.62816070800181,80.62816070800181,80.70017654100229,80.70717312499619,80.70717312499619,81.51852712500113,1,,,,,,,,,,,,,,,sofia,0,2025-08-22_14h44.23.095,tilt_staircase,2023.2.3,120.25361535349536,2025-08-22 14h44.45.271470 -0400,
,,,,,,,,,,,,0,0,0,0,81.52677708299598,,,,,,,,,,,,,,,,,,,,,,,,,,,,,,,,,,,,,,,,,,,,,,,,,,,,,,,posc_poss,30,15,15,-15,"[5, 2, 1, 0.5]",lin,1,1,8,3,6,31,up,2,4,81.51877912499913,4,30,81.52677708299598,82.02838279100251,82.02838279100251,82.10015525000199,82.10706412499712,82.10706412499712,82.6919416660021,0,,,,,,,,,,,,,,,sofia,0,2025-08-22_14h44.23.095,tilt_staircase,2023.2.3,120.25361535349536,2025-08-22 14h44.45.271470 -0400,
,,,,,,,,,,,,0,0,0,0,82.70001195799705,,,,,,,,,,,,,,,,,,,,,,,,,,,,,,,,,,,,,,,,,,,,,,,,,,,,,,,negc_negs,30,-15,15,-15,"[5, 2, 1, 0.5]",lin,1,1,8,0,6,32,up,1,-1,82.69214304100024,-1,-30,82.70001195799705,83.19467874999827,83.19467874999827,83.27564637499745,83.27564637499745,83.27564637499745,84.21849429100257,1,,,,,,,,,,,,,,,sofia,0,2025-08-22_14h44.23.095,tilt_staircase,2023.2.3,120.25361535349536,2025-08-22 14h44.45.271470 -0400,
,,,,,,,,,,,,0,0,0,0,84.2270708329961,,,,,,,,,,,,,,,,,,,,,,,,,,,,,,,,,,,,,,,,,,,,,,,,,,,,,,,posc_negs,30,15,15,-15,"[5, 2, 1, 0.5]",lin,1,1,8,1,6,33,up,2,-3,84.21877624999615,-3,-30,84.2270708329961,84.72755162500107,84.72755162500107,84.79947979099961,84.80615612499969,84.80615612499969,85.78483229099947,1,,,,,,,,,,,,,,,sofia,0,2025-08-22_14h44.23.095,tilt_staircase,2023.2.3,120.25361535349536,2025-08-22 14h44.45.271470 -0400,
,,,,,,,,,,,,0,0,0,0,85.79329708300065,,,,,,,,,,,,,,,,,,,,,,,,,,,,,,,,,,,,,,,,,,,,,,,,,,,,,,,negc_poss,30,-15,15,-15,"[5, 2, 1, 0.5]",lin,1,1,8,2,6,34,up,5,10,85.78507566599728,10,30,85.79329708300065,86.29505637499824,86.29505637499824,86.36691445799806,86.37346470799821,86.37346470799821,87.06830449999688,1,,,,,,,,,,,,,,,sofia,0,2025-08-22_14h44.23.095,tilt_staircase,2023.2.3,120.25361535349536,2025-08-22 14h44.45.271470 -0400,
,,,,,,,,,,,,0,0,0,0,87.07700112499879,,,,,,,,,,,,,,,,,,,,,,,,,,,,,,,,,,,,,,,,,,,,,,,,,,,,,,,posc_noss,30,15,15,-15,"[5, 2, 1, 0.5]",lin,1,1,8,5,6,35,down,1,1,87.0685483749985,1,,87.07700112499879,87.5773819160022,87.5773819160022,87.65028362500016,87.65723516599974,87.65723516599974,88.57558474999678,0,,,,,,,,,,,,,,,sofia,0,2025-08-22_14h44.23.095,tilt_staircase,2023.2.3,120.25361535349536,2025-08-22 14h44.45.271470 -0400,
,,,,,,,,,,,,0,0,0,0,88.58437870800117,,,,,,,,,,,,,,,,,,,,,,,,,,,,,,,,,,,,,,,,,,,,,,,,,,,,,,,negc_poss,30,-15,15,-15,"[5, 2, 1, 0.5]",lin,1,1,8,2,7,36,down,2,8,88.57587783299823,8,30,88.58437870800117,89.07775679099723,89.07775679099723,89.15845604099741,89.15845604099741,89.15845604099741,90.20852895799908,0,,,,,,,,,,,,,,,sofia,0,2025-08-22_14h44.23.095,tilt_staircase,2023.2.3,120.25361535349536,2025-08-22 14h44.45.271470 -0400,
,,,,,,,,,,,,0,0,0,0,90.21679070800019,,,,,,,,,,,,,,,,,,,,,,,,,,,,,,,,,,,,,,,,,,,,,,,,,,,,,,,posc_poss,30,15,15,-15,"[5, 2, 1, 0.5]",lin,1,1,8,3,7,37,up,2,6,90.20877116599877,6,30,90.21679070800019,90.71206195800187,90.71206195800187,90.79238029100088,90.79238029100088,90.79238029100088,91.46835904099862,1,,,,,,,,,,,,,,,sofia,0,2025-08-22_14h44.23.095,tilt_staircase,2023.2.3,120.25361535349536,2025-08-22 14h44.45.271470 -0400,
,,,,,,,,,,,,0,0,0,0,91.47659762499825,,,,,,,,,,,,,,,,,,,,,,,,,,,,,,,,,,,,,,,,,,,,,,,,,,,,,,,posc_noss,30,15,15,-15,"[5, 2, 1, 0.5]",lin,1,1,8,5,7,38,up,0.5,1.5,91.46856904099695,1.5,,91.47659762499825,91.97714495800028,91.97714495800028,92.05046433299867,92.05746962499688,92.05746962499688,92.8693409999978,1,,,,,,,,,,,,,,,sofia,0,2025-08-22_14h44.23.095,tilt_staircase,2023.2.3,120.25361535349536,2025-08-22 14h44.45.271470 -0400,
,,,,,,,,,,,,0,0,0,0,92.87811091599724,,,,,,,,,,,,,,,,,,,,,,,,,,,,,,,,,,,,,,,,,,,,,,,,,,,,,,,negc_negs,30,-15,15,-15,"[5, 2, 1, 0.5]",lin,1,1,8,0,7,39,down,0.5,-1.5,92.86959708300128,-1.5,-30,92.87811091599724,93.37750370799768,93.37750370799768,93.45030224999937,93.45678745800251,93.45678745800251,94.54461154100136,1,,,,,,,,,,,,,,,sofia,0,2025-08-22_14h44.23.095,tilt_staircase,2023.2.3,120.25361535349536,2025-08-22 14h44.45.271470 -0400,
,,,,,,,,,,,,0,0,0,0,94.5503017910014,,,,,,,,,,,,,,,,,,,,,,,,,,,,,,,,,,,,,,,,,,,,,,,,,,,,,,,negc_noss,30,-15,15,-15,"[5, 2, 1, 0.5]",lin,1,1,8,4,7,40,down,2,1,94.54481525000301,1,,94.5503017910014,95.05041808300302,95.05041808300302,95.12569695799903,95.13362520800001,95.13362520800001,95.68537733300036,0,,,,,,,,,,,,,,,sofia,0,2025-08-22_14h44.23.095,tilt_staircase,2023.2.3,120.25361535349536,2025-08-22 14h44.45.271470 -0400,
,,,,,,,,,,,,0,0,0,0,95.69381158299802,,,,,,,,,,,,,,,,,,,,,,,,,,,,,,,,,,,,,,,,,,,,,,,,,,,,,,,posc_negs,30,15,15,-15,"[5, 2, 1, 0.5]",lin,1,1,8,1,7,41,down,1,-4,95.68563295799686,-4,-30,95.69381158299802,96.19493945800059,96.19493945800059,96.26700733300095,96.27393420800217,96.27393420800217,97.501675624997,0,,,,,,,,,,,,,,,sofia,0,2025-08-22_14h44.23.095,tilt_staircase,2023.2.3,120.25361535349536,2025-08-22 14h44.45.271470 -0400,
,,,,,,,,,,,,0,0,0,0,97.51010354099708,,,,,,,,,,,,,,,,,,,,,,,,,,,,,,,,,,,,,,,,,,,,,,,,,,,,,,,posc_noss,30,15,15,-15,"[5, 2, 1, 0.5]",lin,1,1,8,5,8,42,down,0.5,1.0,97.50196058300207,1.0,,97.51010354099708,98.01078087499627,98.01078087499627,98.08370337499946,98.09062237499893,98.09062237499893,98.78556504099834,0,,,,,,,,,,,,,,,sofia,0,2025-08-22_14h44.23.095,tilt_staircase,2023.2.3,120.25361535349536,2025-08-22 14h44.45.271470 -0400,
,,,,,,,,,,,,0,0,0,0,98.79405512499943,,,,,,,,,,,,,,,,,,,,,,,,,,,,,,,,,,,,,,,,,,,,,,,,,,,,,,,negc_noss,30,-15,15,-15,"[5, 2, 1, 0.5]",lin,1,1,8,4,8,43,up,1,2,98.78582254100183,2,,98.79405512499943,99.29542229099752,99.29542229099752,99.36700683300296,99.37409916600154,99.37409916600154,100.03526983300253,1,,,,,,,,,,,,,,,sofia,0,2025-08-22_14h44.23.095,tilt_staircase,2023.2.3,120.25361535349536,2025-08-22 14h44.45.271470 -0400,
,,,,,,,,,,,,0,0,0,0,100.04417154099792,,,,,,,,,,,,,,,,,,,,,,,,,,,,,,,,,,,,,,,,,,,,,,,,,,,,,,,negc_poss,30,-15,15,-15,"[5, 2, 1, 0.5]",lin,1,1,8,2,8,44,up,1,9,100.03553541599831,9,30,100.04417154099792,100.54440404100023,100.54440404100023,100.61707004100026,100.62402645799739,100.62402645799739,101.23497495800257,1,,,,,,,,,,,,,,,sofia,0,2025-08-22_14h44.23.095,tilt_staircase,2023.2.3,120.25361535349536,2025-08-22 14h44.45.271470 -0400,
,,,,,,,,,,,,0,0,0,0,101.2431291249959,,,,,,,,,,,,,,,,,,,,,,,,,,,,,,,,,,,,,,,,,,,,,,,,,,,,,,,posc_negs,30,15,15,-15,"[5, 2, 1, 0.5]",lin,1,1,8,1,8,45,up,0.5,-3.5,101.23520270799781,-3.5,-30,101.2431291249959,101.74544216600043,101.74544216600043,101.81703387499874,101.82401291599672,101.82401291599672,102.45846341599827,0,,,,,,,,,,,,,,,sofia,0,2025-08-22_14h44.23.095,tilt_staircase,2023.2.3,120.25361535349536,2025-08-22 14h44.45.271470 -0400,
,,,,,,,,,,,,0,0,0,0,102.46652516599715,,,,,,,,,,,,,,,,,,,,,,,,,,,,,,,,,,,,,,,,,,,,,,,,,,,,,,,negc_negs,30,-15,15,-15,"[5, 2, 1, 0.5]",lin,1,1,8,0,8,46,down,0.5,-2.0,102.45866541600117,-2.0,-30,102.46652516599715,102.96206808299758,102.96206808299758,103.04160825000145,103.04160825000145,103.04160825000145,104.07547579099628,1,,,,,,,,,,,,,,,sofia,0,2025-08-22_14h44.23.095,tilt_staircase,2023.2.3,120.25361535349536,2025-08-22 14h44.45.271470 -0400,
,,,,,,,,,,,,0,0,0,0,104.08351366600255,,,,,,,,,,,,,,,,,,,,,,,,,,,,,,,,,,,,,,,,,,,,,,,,,,,,,,,posc_poss,30,15,15,-15,"[5, 2, 1, 0.5]",lin,1,1,8,3,8,47,down,1,5,104.07571383300092,5,30,104.08351366600255,104.57820608300244,104.57820608300244,104.6587278750012,104.6587278750012,104.6587278750012,105.26846549999755,0,,,,,,,,,,,,,,,sofia,0,2025-08-22_14h44.23.095,tilt_staircase,2023.2.3,120.25361535349536,2025-08-22 14h44.45.271470 -0400,
,,,,,,,,,,,,0,0,0,0,105.27665912499651,,,,,,,,,,,,,,,,,,,,,,,,,,,,,,,,,,,,,,,,,,,,,,,,,,,,,,,posc_poss,30,15,15,-15,"[5, 2, 1, 0.5]",lin,1,1,8,3,9,48,up,0.5,5.5,105.26870687500195,5.5,30,105.27665912499651,105.77819166600239,105.77819166600239,105.8504391250026,105.85743595800159,105.85743595800159,106.81835400000273,1,,,,,,,,,,,,,,,sofia,0,2025-08-22_14h44.23.095,tilt_staircase,2023.2.3,120.25361535349536,2025-08-22 14h44.45.271470 -0400,
,,,,,,,,,,,,0,0,0,0,106.82712370799709,,,,,,,,,,,,,,,,,,,,,,,,,,,,,,,,,,,,,,,,,,,,,,,,,,,,,,,negc_poss,30,-15,15,-15,"[5, 2, 1, 0.5]",lin,1,1,8,2,9,49,down,0.5,8.5,106.81859808300214,8.5,30,106.82712370799709,107.32854145800229,107.32854145800229,107.40045495799859,107.4074566249983,107.4074566249983,108.0513839999985,1,,,,,,,,,,,,,,,sofia,0,2025-08-22_14h44.23.095,tilt_staircase,2023.2.3,120.25361535349536,2025-08-22 14h44.45.271470 -0400,
,,,,,,,,,,,,0,0,0,0,108.05911212499632,,,,,,,,,,,,,,,,,,,,,,,,,,,,,,,,,,,,,,,,,,,,,,,,,,,,,,,negc_negs,30,-15,15,-15,"[5, 2, 1, 0.5]",lin,1,1,8,0,9,50,down,0.5,-2.5,108.05158624999603,-2.5,-30,108.05911212499632,108.56098279100115,108.56098279100115,108.63383608299773,108.64077233299759,108.64077233299759,109.53483495800174,0,,,,,,,,,,,,,,,sofia,0,2025-08-22_14h44.23.095,tilt_staircase,2023.2.3,120.25361535349536,2025-08-22 14h44.45.271470 -0400,
,,,,,,,,,,,,0,0,0,0,109.54290524999669,,,,,,,,,,,,,,,,,,,,,,,,,,,,,,,,,,,,,,,,,,,,,,,,,,,,,,,negc_noss,30,-15,15,-15,"[5, 2, 1, 0.5]",lin,1,1,8,4,9,51,down,0.5,1.5,109.53503887500119,1.5,,109.54290524999669,110.04528879099962,110.04528879099962,110.11713291599881,110.1240694579974,110.1240694579974,110.75274654100213,1,,,,,,,,,,,,,,,sofia,0,2025-08-22_14h44.23.095,tilt_staircase,2023.2.3,120.25361535349536,2025-08-22 14h44.45.271470 -0400,
,,,,,,,,,,,,0,0,0,0,110.7615022500031,,,,,,,,,,,,,,,,,,,,,,,,,,,,,,,,,,,,,,,,,,,,,,,,,,,,,,,posc_noss,30,15,15,-15,"[5, 2, 1, 0.5]",lin,1,1,8,5,9,52,up,0.5,1.5,110.75299220799934,1.5,,110.7615022500031,111.26219675000175,111.26219675000175,111.33387229099753,111.34091008300311,111.34091008300311,112.1017574159996,0,,,,,,,,,,,,,,,sofia,0,2025-08-22_14h44.23.095,tilt_staircase,2023.2.3,120.25361535349536,2025-08-22 14h44.45.271470 -0400,
,,,,,,,,,,,,0,0,0,0,112.11003699999856,,,,,,,,,,,,,,,,,,,,,,,,,,,,,,,,,,,,,,,,,,,,,,,,,,,,,,,posc_negs,30,15,15,-15,"[5, 2, 1, 0.5]",lin,1,1,8,1,9,53,up,0.5,-3.0,112.1019707910018,-3.0,-30,112.11003699999856,112.61140437499853,112.61140437499853,112.68349212499743,112.69078525000077,112.69078525000077,113.41835341599653,1,,,,,,,,,,,,,,,sofia,0,2025-08-22_14h44.23.095,tilt_staircase,2023.2.3,120.25361535349536,2025-08-22 14h44.45.271470 -0400,
,,,,,,,,,,,,0,0,0,0,113.42634212499979,,,,,,,,,,,,,,,,,,,,,,,,,,,,,,,,,,,,,,,,,,,,,,,,,,,,,,,posc_poss,30,15,15,-15,"[5, 2, 1, 0.5]",lin,1,1,8,3,10,54,down,0.5,5.0,113.41861025000253,5.0,30,113.42634212499979,113.92859029099782,113.92859029099782,114.00061291600286,114.00756583300245,114.00756583300245,115.4589718749994,1,,,,,,,,,,,,,,,sofia,0,2025-08-22_14h44.23.095,tilt_staircase,2023.2.3,120.25361535349536,2025-08-22 14h44.45.271470 -0400,
,,,,,,,,,,,,0,0,0,0,115.46710012500262,,,,,,,,,,,,,,,,,,,,,,,,,,,,,,,,,,,,,,,,,,,,,,,,,,,,,,,negc_poss,30,-15,15,-15,"[5, 2, 1, 0.5]",lin,1,1,8,2,10,55,down,0.5,8.0,115.45921929099859,8.0,30,115.46710012500262,115.96073633299966,115.96073633299966,116.04154766599822,116.04154766599822,116.04154766599822,116.95884495799692,1,,,,,,,,,,,,,,,sofia,0,2025-08-22_14h44.23.095,tilt_staircase,2023.2.3,120.25361535349536,2025-08-22 14h44.45.271470 -0400,
,,,,,,,,,,,,0,0,0,0,116.96728458299913,,,,,,,,,,,,,,,,,,,,,,,,,,,,,,,,,,,,,,,,,,,,,,,,,,,,,,,negc_noss,30,-15,15,-15,"[5, 2, 1, 0.5]",lin,1,1,8,4,10,56,down,0.5,1.0,116.95909224999923,1.0,,116.96728458299913,117.46121208299883,117.46121208299883,117.54178608299844,117.54178608299844,117.54178608299844,118.451891040997,0,,,,,,,,,,,,,,,sofia,0,2025-08-22_14h44.23.095,tilt_staircase,2023.2.3,120.25361535349536,2025-08-22 14h44.45.271470 -0400,
,,,,,,,,,,,,0,0,0,0,118.46049091599707,,,,,,,,,,,,,,,,,,,,,,,,,,,,,,,,,,,,,,,,,,,,,,,,,,,,,,,negc_negs,30,-15,15,-15,"[5, 2, 1, 0.5]",lin,1,1,8,0,10,57,up,0.5,-2.0,118.45213370800047,-2.0,-30,118.46049091599707,118.96116008300305,118.96116008300305,119.033929833,119.04089124999882,119.04089124999882,119.90873133300192,1,,,,,,,,,,,,,,,sofia,0,2025-08-22_14h44.23.095,tilt_staircase,2023.2.3,120.25361535349536,2025-08-22 14h44.45.271470 -0400,
,,,,,,,,,,,,0,0,0,0,119.91724237499875,,,,,,,,,,,,,,,,,,,,,,,,,,,,,,,,,,,,,,,,,,,,,,,,,,,,,,,posc_negs,30,15,15,-15,"[5, 2, 1, 0.5]",lin,1,1,8,1,10,58,down,0.5,-3.5,119.90898520799965,-3.5,-30,119.91724237499875,120.41234570799861,120.41234570799861,120.49136958299641,120.49136958299641,120.49136958299641,121.84224258299946,1,,,,,,,,,,,,,,,sofia,0,2025-08-22_14h44.23.095,tilt_staircase,2023.2.3,120.25361535349536,2025-08-22 14h44.45.271470 -0400,
,,,,,,,,,,,,0,0,0,0,121.85064120800234,,,,,,,,,,,,,,,,,,,,,,,,,,,,,,,,,,,,,,,,,,,,,,,,,,,,,,,posc_noss,30,15,15,-15,"[5, 2, 1, 0.5]",lin,1,1,8,5,10,59,up,0.5,2.0,121.84244545800175,2.0,,121.85064120800234,122.34439991600084,122.34439991600084,122.42501454099693,122.42501454099693,122.42501454099693,123.52585908299807,1,,,,,,,,,,,,,,,sofia,0,2025-08-22_14h44.23.095,tilt_staircase,2023.2.3,120.25361535349536,2025-08-22 14h44.45.271470 -0400,
,,,,,,,,,,,,0,0,0,0,123.53374929099664,,,,,,,,,,,,,,,,,,,,,,,,,,,,,,,,,,,,,,,,,,,,,,,,,,,,,,,negc_poss,30,-15,15,-15,"[5, 2, 1, 0.5]",lin,1,1,8,2,11,60,down,0.5,7.5,123.52608220800175,7.5,30,123.53374929099664,124.02855679099594,124.02855679099594,124.1088864580015,124.1088864580015,124.1088864580015,124.75846691599872,1,,,,,,,,,,,,,,,sofia,0,2025-08-22_14h44.23.095,tilt_staircase,2023.2.3,120.25361535349536,2025-08-22 14h44.45.271470 -0400,
,,,,,,,,,,,,0,0,0,0,124.76667720799742,,,,,,,,,,,,,,,,,,,,,,,,,,,,,,,,,,,,,,,,,,,,,,,,,,,,,,,posc_noss,30,15,15,-15,"[5, 2, 1, 0.5]",lin,1,1,8,5,11,61,down,0.5,1.5,124.75866975000099,1.5,,124.76667720799742,125.26185762500245,125.26185762500245,125.34217550000176,125.34217550000176,125.34217550000176,125.88540849999845,0,,,,,,,,,,,,,,,sofia,0,2025-08-22_14h44.23.095,tilt_staircase,2023.2.3,120.25361535349536,2025-08-22 14h44.45.271470 -0400,
,,,,,,,,,,,,0,0,0,0,125.89405320800142,,,,,,,,,,,,,,,,,,,,,,,,,,,,,,,,,,,,,,,,,,,,,,,,,,,,,,,negc_negs,30,-15,15,-15,"[5, 2, 1, 0.5]",lin,1,1,8,0,11,62,down,0.5,-2.5,125.88565974999801,-2.5,-30,125.89405320800142,126.39504454100097,126.39504454100097,126.4673359160006,126.4743671249962,126.4743671249962,127.57532133300265,0,,,,,,,,,,,,,,,sofia,0,2025-08-22_14h44.23.095,tilt_staircase,2023.2.3,120.25361535349536,2025-08-22 14h44.45.271470 -0400,
,,,,,,,,,,,,0,0,0,0,127.583566082998,,,,,,,,,,,,,,,,,,,,,,,,,,,,,,,,,,,,,,,,,,,,,,,,,,,,,,,negc_noss,30,-15,15,-15,"[5, 2, 1, 0.5]",lin,1,1,8,4,11,63,up,0.5,1.5,127.57553029099654,1.5,,127.583566082998,128.0778247499984,128.0778247499984,128.15923854099674,128.15923854099674,128.15923854099674,128.80874675000086,1,,,,,,,,,,,,,,,sofia,0,2025-08-22_14h44.23.095,tilt_staircase,2023.2.3,120.25361535349536,2025-08-22 14h44.45.271470 -0400,
,,,,,,,,,,,,0,0,0,0,128.817324458003,,,,,,,,,,,,,,,,,,,,,,,,,,,,,,,,,,,,,,,,,,,,,,,,,,,,,,,posc_negs,30,15,15,-15,"[5, 2, 1, 0.5]",lin,1,1,8,1,11,64,down,0.5,-4.0,128.80899091599713,-4.0,-30,128.817324458003,129.3121107909974,129.3121107909974,129.39113454100152,129.39113454100152,129.39113454100152,130.13508620799985,0,,,,,,,,,,,,,,,sofia,0,2025-08-22_14h44.23.095,tilt_staircase,2023.2.3,120.25361535349536,2025-08-22 14h44.45.271470 -0400,
,,,,,,,,,,,,0,0,0,0,130.14323208299902,,,,,,,,,,,,,,,,,,,,,,,,,,,,,,,,,,,,,,,,,,,,,,,,,,,,,,,posc_poss,30,15,15,-15,"[5, 2, 1, 0.5]",lin,1,1,8,3,11,65,down,0.5,4.5,130.13528995800152,4.5,30,130.14323208299902,130.64477154099586,130.64477154099586,130.7174617080018,130.724822958,130.724822958,131.3590165409987,0,,,,,,,,,,,,,,,sofia,0,2025-08-22_14h44.23.095,tilt_staircase,2023.2.3,120.25361535349536,2025-08-22 14h44.45.271470 -0400,
,,,,,,,,,,,,0,0,0,0,131.36732020800264,,,,,,,,,,,,,,,,,,,,,,,,,,,,,,,,,,,,,,,,,,,,,,,,,,,,,,,posc_poss,30,15,15,-15,"[5, 2, 1, 0.5]",lin,1,1,8,3,12,66,up,0.5,5.0,131.35928545799834,5.0,30,131.36732020800264,131.86142395799834,131.86142395799834,131.94192058299814,131.94192058299814,131.94192058299814,132.48526037499687,0,,,,,,,,,,,,,,,sofia,0,2025-08-22_14h44.23.095,tilt_staircase,2023.2.3,120.25361535349536,2025-08-22 14h44.45.271470 -0400,
,,,,,,,,,,,,0,0,0,0,132.49332037499698,,,,,,,,,,,,,,,,,,,,,,,,,,,,,,,,,,,,,,,,,,,,,,,,,,,,,,,negc_noss,30,-15,15,-15,"[5, 2, 1, 0.5]",lin,1,1,8,4,12,67,down,0.5,1.0,132.48546937500214,1.0,,132.49332037499698,132.99494933299866,132.99494933299866,133.0667282909999,133.07352366599662,133.07352366599662,133.9020837909993,0,,,,,,,,,,,,,,,sofia,0,2025-08-22_14h44.23.095,tilt_staircase,2023.2.3,120.25361535349536,2025-08-22 14h44.45.271470 -0400,
,,,,,,,,,,,,0,0,0,0,133.91086483300023,,,,,,,,,,,,,,,,,,,,,,,,,,,,,,,,,,,,,,,,,,,,,,,,,,,,,,,negc_poss,30,-15,15,-15,"[5, 2, 1, 0.5]",lin,1,1,8,2,12,68,down,0.5,7.0,133.90233408300264,7.0,30,133.91086483300023,134.41200966599718,134.41200966599718,134.48412720800115,134.49126004100253,134.49126004100253,135.5094863330014,1,,,,,,,,,,,,,,,sofia,0,2025-08-22_14h44.23.095,tilt_staircase,2023.2.3,120.25361535349536,2025-08-22 14h44.45.271470 -0400,
,,,,,,,,,,,,0,0,0,0,135.51770974999818,,,,,,,,,,,,,,,,,,,,,,,,,,,,,,,,,,,,,,,,,,,,,,,,,,,,,,,posc_negs,30,15,15,-15,"[5, 2, 1, 0.5]",lin,1,1,8,1,12,69,up,0.5,-3.5,135.50973295800213,-3.5,-30,135.51770974999818,136.01129629099887,136.01129629099887,136.09138362499652,136.09138362499652,136.09138362499652,136.94295029099885,1,,,,,,,,,,,,,,,sofia,0,2025-08-22_14h44.23.095,tilt_staircase,2023.2.3,120.25361535349536,2025-08-22 14h44.45.271470 -0400,
,,,,,,,,,,,,0,0,0,0,136.9510904159979,,,,,,,,,,,,,,,,,,,,,,,,,,,,,,,,,,,,,,,,,,,,,,,,,,,,,,,posc_noss,30,15,15,-15,"[5, 2, 1, 0.5]",lin,1,1,8,5,12,70,up,0.5,2.0,136.94319708299736,2.0,,136.9510904159979,137.44504174999747,137.44504174999747,137.52593504099787,137.52593504099787,137.52593504099787,138.08574162500008,1,,,,,,,,,,,,,,,sofia,0,2025-08-22_14h44.23.095,tilt_staircase,2023.2.3,120.25361535349536,2025-08-22 14h44.45.271470 -0400,
,,,,,,,,,,,,0,0,0,0,138.09411291599827,,,,,,,,,,,,,,,,,,,,,,,,,,,,,,,,,,,,,,,,,,,,,,,,,,,,,,,negc_negs,30,-15,15,-15,"[5, 2, 1, 0.5]",lin,1,1,8,0,12,71,up,0.5,-2.0,138.08599258300092,-2.0,-30,138.09411291599827,138.59539137499814,138.59539137499814,138.66756279100082,138.67454020799778,138.67454020799778,139.4357137909974,1,,,,,,,,,,,,,,,sofia,0,2025-08-22_14h44.23.095,tilt_staircase,2023.2.3,120.25361535349536,2025-08-22 14h44.45.271470 -0400,
,,,,,,,,,,,,0,0,0,0,139.444011915999,,,,,,,,,,,,,,,,,,,,,,,,,,,,,,,,,,,,,,,,,,,,,,,,,,,,,,,posc_noss,30,15,15,-15,"[5, 2, 1, 0.5]",lin,1,1,8,5,13,72,down,0.5,1.5,139.43594016599673,1.5,,139.444011915999,139.94550433300174,139.94550433300174,140.0174532079982,140.0244932909991,140.0244932909991,140.6353615409971,1,,,,,,,,,,,,,,,sofia,0,2025-08-22_14h44.23.095,tilt_staircase,2023.2.3,120.25361535349536,2025-08-22 14h44.45.271470 -0400,
,,,,,,,,,,,,0,0,0,0,140.64384779099782,,,,,,,,,,,,,,,,,,,,,,,,,,,,,,,,,,,,,,,,,,,,,,,,,,,,,,,negc_noss,30,-15,15,-15,"[5, 2, 1, 0.5]",lin,1,1,8,4,13,73,up,0.5,1.5,140.63560449999932,1.5,,140.64384779099782,141.14559512500273,141.14559512500273,141.21750050000264,141.22451374999946,141.22451374999946,141.8853174160031,0,,,,,,,,,,,,,,,sofia,0,2025-08-22_14h44.23.095,tilt_staircase,2023.2.3,120.25361535349536,2025-08-22 14h44.45.271470 -0400,
,,,,,,,,,,,,0,0,0,0,141.8938063750029,,,,,,,,,,,,,,,,,,,,,,,,,,,,,,,,,,,,,,,,,,,,,,,,,,,,,,,posc_negs,30,15,15,-15,"[5, 2, 1, 0.5]",lin,1,1,8,1,13,74,down,0.5,-4.0,141.88555887500115,-4.0,-30,141.8938063750029,142.39467291600158,142.39467291600158,142.46664708299795,142.4733399159959,142.4733399159959,143.25922208299744,0,,,,,,,,,,,,,,,sofia,0,2025-08-22_14h44.23.095,tilt_staircase,2023.2.3,120.25361535349536,2025-08-22 14h44.45.271470 -0400,
,,,,,,,,,,,,0,0,0,0,143.26769766600046,,,,,,,,,,,,,,,,,,,,,,,,,,,,,,,,,,,,,,,,,,,,,,,,,,,,,,,negc_negs,30,-15,15,-15,"[5, 2, 1, 0.5]",lin,1,1,8,0,13,75,down,0.5,-2.5,143.2594776659971,-2.5,-30,143.26769766600046,143.76241195799957,143.76241195799957,143.84279708300164,143.84279708300164,143.84279708300164,144.50234466599795,1,,,,,,,,,,,,,,,sofia,0,2025-08-22_14h44.23.095,tilt_staircase,2023.2.3,120.25361535349536,2025-08-22 14h44.45.271470 -0400,
,,,,,,,,,,,,0,0,0,0,144.51078849999612,,,,,,,,,,,,,,,,,,,,,,,,,,,,,,,,,,,,,,,,,,,,,,,,,,,,,,,negc_poss,30,-15,15,-15,"[5, 2, 1, 0.5]",lin,1,1,8,2,13,76,down,0.5,6.5,144.50258437499724,6.5,30,144.51078849999612,145.0127845829993,145.0127845829993,145.08429737499682,145.09140329100046,145.09140329100046,146.35202754099737,1,,,,,,,,,,,,,,,sofia,0,2025-08-22_14h44.23.095,tilt_staircase,2023.2.3,120.25361535349536,2025-08-22 14h44.45.271470 -0400,
,,,,,,,,,,,,0,0,0,0,146.3606660000005,,,,,,,,,,,,,,,,,,,,,,,,,,,,,,,,,,,,,,,,,,,,,,,,,,,,,,,posc_poss,30,15,15,-15,"[5, 2, 1, 0.5]",lin,1,1,8,3,13,77,up,0.5,5.5,146.35226933300146,5.5,30,146.3606660000005,146.8613961250012,146.8613961250012,146.93343716600066,146.9399753329999,146.9399753329999,147.85229120800068,0,,,,,,,,,,,,,,,sofia,0,2025-08-22_14h44.23.095,tilt_staircase,2023.2.3,120.25361535349536,2025-08-22 14h44.45.271470 -0400,
,,,,,,,,,,,,0,0,0,0,147.8605893749991,,,,,,,,,,,,,,,,,,,,,,,,,,,,,,,,,,,,,,,,,,,,,,,,,,,,,,,negc_poss,30,-15,15,-15,"[5, 2, 1, 0.5]",lin,1,1,8,2,14,78,down,0.5,6.0,147.85255112499726,6.0,30,147.8605893749991,148.36149691599712,148.36149691599712,148.43422199999623,148.44126670799596,148.44126670799596,149.0360337910024,0,,,,,,,,,,,,,,,sofia,0,2025-08-22_14h44.23.095,tilt_staircase,2023.2.3,120.25361535349536,2025-08-22 14h44.45.271470 -0400,
,,,,,,,,,,,,0,0,0,0,149.04482529099914,,,,,,,,,,,,,,,,,,,,,,,,,,,,,,,,,,,,,,,,,,,,,,,,,,,,,,,posc_poss,30,15,15,-15,"[5, 2, 1, 0.5]",lin,1,1,8,3,14,79,up,0.5,6.0,149.036278915999,6.0,30,149.04482529099914,149.54508387499664,149.54508387499664,149.6176806250005,149.62415787499776,149.62415787499776,150.24316483300208,0,,,,,,,,,,,,,,,sofia,0,2025-08-22_14h44.23.095,tilt_staircase,2023.2.3,120.25361535349536,2025-08-22 14h44.45.271470 -0400,
,,,,,,,,,,,,0,0,0,0,150.25104799999826,,,,,,,,,,,,,,,,,,,,,,,,,,,,,,,,,,,,,,,,,,,,,,,,,,,,,,,posc_negs,30,15,15,-15,"[5, 2, 1, 0.5]",lin,1,1,8,1,14,80,up,0.5,-3.5,150.24340766599926,-3.5,-30,150.25104799999826,150.74623004099703,150.74623004099703,150.82597887500015,150.82597887500015,150.82597887500015,151.6258406659981,1,,,,,,,,,,,,,,,sofia,0,2025-08-22_14h44.23.095,tilt_staircase,2023.2.3,120.25361535349536,2025-08-22 14h44.45.271470 -0400,
,,,,,,,,,,,,0,0,0,0,151.6341182499964,,,,,,,,,,,,,,,,,,,,,,,,,,,,,,,,,,,,,,,,,,,,,,,,,,,,,,,posc_noss,30,15,15,-15,"[5, 2, 1, 0.5]",lin,1,1,8,5,14,81,down,0.5,1.0,151.62608733300294,1.0,,151.6341182499964,152.1288665000029,152.1288665000029,152.2088712909972,152.2088712909972,152.2088712909972,153.38549908300047,0,,,,,,,,,,,,,,,sofia,0,2025-08-22_14h44.23.095,tilt_staircase,2023.2.3,120.25361535349536,2025-08-22 14h44.45.271470 -0400,
,,,,,,,,,,,,0,0,0,0,153.394209625003,,,,,,,,,,,,,,,,,,,,,,,,,,,,,,,,,,,,,,,,,,,,,,,,,,,,,,,negc_negs,30,-15,15,-15,"[5, 2, 1, 0.5]",lin,1,1,8,0,14,82,down,0.5,-3.0,153.38574549999612,-3.0,-30,153.394209625003,153.8955493329995,153.8955493329995,153.9680266659998,153.97498520799854,153.97498520799854,154.61884820799605,0,,,,,,,,,,,,,,,sofia,0,2025-08-22_14h44.23.095,tilt_staircase,2023.2.3,120.25361535349536,2025-08-22 14h44.45.271470 -0400,
,,,,,,,,,,,,0,0,0,0,154.62728624999727,,,,,,,,,,,,,,,,,,,,,,,,,,,,,,,,,,,,,,,,,,,,,,,,,,,,,,,negc_noss,30,-15,15,-15,"[5, 2, 1, 0.5]",lin,1,1,8,4,14,83,up,0.5,2.0,154.61909408299834,2.0,,154.62728624999727,155.12916604099883,155.12916604099883,155.20098212500307,155.20786204100295,155.20786204100295,155.7521248330013,1,,,,,,,,,,,,,,,sofia,0,2025-08-22_14h44.23.095,tilt_staircase,2023.2.3,120.25361535349536,2025-08-22 14h44.45.271470 -0400,
,,,,,,,,,,,,0,0,0,0,155.7604015409961,,,,,,,,,,,,,,,,,,,,,,,,,,,,,,,,,,,,,,,,,,,,,,,,,,,,,,,negc_poss,30,-15,15,-15,"[5, 2, 1, 0.5]",lin,1,1,8,2,15,84,up,0.5,6.5,155.75238358299976,6.5,30,155.7604015409961,156.26327441600006,156.26327441600006,156.33436658299615,156.34151766599825,156.34151766599825,157.01904891600134,0,,,,,,,,,,,,,,,sofia,0,2025-08-22_14h44.23.095,tilt_staircase,2023.2.3,120.25361535349536,2025-08-22 14h44.45.271470 -0400,
,,,,,,,,,,,,0,0,0,0,157.02692037499946,,,,,,,,,,,,,,,,,,,,,,,,,,,,,,,,,,,,,,,,,,,,,,,,,,,,,,,posc_negs,30,15,15,-15,"[5, 2, 1, 0.5]",lin,1,1,8,1,15,85,down,0.5,-4.0,157.01925350000238,-4.0,-30,157.02692037499946,157.52810350000073,157.52810350000073,157.60102470799757,157.60793491599907,157.60793491599907,158.2186864999967,0,,,,,,,,,,,,,,,sofia,0,2025-08-22_14h44.23.095,tilt_staircase,2023.2.3,120.25361535349536,2025-08-22 14h44.45.271470 -0400,
,,,,,,,,,,,,0,0,0,0,158.2272114160005,,,,,,,,,,,,,,,,,,,,,,,,,,,,,,,,,,,,,,,,,,,,,,,,,,,,,,,negc_negs,30,-15,15,-15,"[5, 2, 1, 0.5]",lin,1,1,8,0,15,86,up,0.5,-2.5,158.21893145800277,-2.5,-30,158.2272114160005,158.7287408330012,158.7287408330012,158.80152924999857,158.80860179100273,158.80860179100273,159.54217787500238,0,,,,,,,,,,,,,,,sofia,0,2025-08-22_14h44.23.095,tilt_staircase,2023.2.3,120.25361535349536,2025-08-22 14h44.45.271470 -0400,
,,,,,,,,,,,,0,0,0,0,159.55033045799792,,,,,,,,,,,,,,,,,,,,,,,,,,,,,,,,,,,,,,,,,,,,,,,,,,,,,,,negc_noss,30,-15,15,-15,"[5, 2, 1, 0.5]",lin,1,1,8,4,15,87,down,0.5,1.5,159.54238525000255,1.5,,159.55033045799792,160.0452899160009,160.0452899160009,160.15143254100258,160.15143254100258,160.15143254100258,160.80859687500197,1,,,,,,,,,,,,,,,sofia,0,2025-08-22_14h44.23.095,tilt_staircase,2023.2.3,120.25361535349536,2025-08-22 14h44.45.271470 -0400,
,,,,,,,,,,,,0,0,0,0,160.81789320799726,,,,,,,,,,,,,,,,,,,,,,,,,,,,,,,,,,,,,,,,,,,,,,,,,,,,,,,posc_poss,30,15,15,-15,"[5, 2, 1, 0.5]",lin,1,1,8,3,15,88,up,0.5,6.5,160.8088075830019,6.5,30,160.81789320799726,161.31168333299865,161.31168333299865,161.39277520799806,161.39277520799806,161.39277520799806,162.07607983300113,0,,,,,,,,,,,,,,,sofia,0,2025-08-22_14h44.23.095,tilt_staircase,2023.2.3,120.25361535349536,2025-08-22 14h44.45.271470 -0400,
,,,,,,,,,,,,0,0,0,0,162.0841726660001,,,,,,,,,,,,,,,,,,,,,,,,,,,,,,,,,,,,,,,,,,,,,,,,,,,,,,,posc_noss,30,15,15,-15,"[5, 2, 1, 0.5]",lin,1,1,8,5,15,89,up,0.5,1.5,162.07628637499874,1.5,,162.0841726660001,162.57943450000312,162.57943450000312,162.658713290999,162.658713290999,162.658713290999,163.9020045829966,0,,,,,,,,,,,,,,,sofia,0,2025-08-22_14h44.23.095,tilt_staircase,2023.2.3,120.25361535349536,2025-08-22 14h44.45.271470 -0400,
,,,,,,,,,,,,0,0,0,0,163.91027941599896,,,,,,,,,,,,,,,,,,,,,,,,,,,,,,,,,,,,,,,,,,,,,,,,,,,,,,,negc_noss,30,-15,15,-15,"[5, 2, 1, 0.5]",lin,1,1,8,4,16,90,down,0.5,1.0,163.9022257079996,1.0,,163.91027941599896,164.41190345799987,164.41190345799987,164.4844982909999,164.49138291599957,164.49138291599957,164.98616858299647,1,,,,,,,,,,,,,,,sofia,0,2025-08-22_14h44.23.095,tilt_staircase,2023.2.3,120.25361535349536,2025-08-22 14h44.45.271470 -0400,
,,,,,,,,,,,,0,0,0,0,164.99455758299882,,,,,,,,,,,,,,,,,,,,,,,,,,,,,,,,,,,,,,,,,,,,,,,,,,,,,,,posc_negs,30,15,15,-15,"[5, 2, 1, 0.5]",lin,1,1,8,1,16,91,up,0.5,-3.5,164.98638833299628,-3.5,-30,164.99455758299882,165.49462679099815,165.49462679099815,165.5678079999998,165.5746444999968,165.5746444999968,166.43563999999606,0,,,,,,,,,,,,,,,sofia,0,2025-08-22_14h44.23.095,tilt_staircase,2023.2.3,120.25361535349536,2025-08-22 14h44.45.271470 -0400,
,,,,,,,,,,,,0,0,0,0,166.4436657499973,,,,,,,,,,,,,,,,,,,,,,,,,,,,,,,,,,,,,,,,,,,,,,,,,,,,,,,posc_noss,30,15,15,-15,"[5, 2, 1, 0.5]",lin,1,1,8,5,16,92,up,0.5,2.0,166.43584608299716,2.0,,166.4436657499973,166.94549691599968,166.94549691599968,167.0177834999995,167.0242526660004,167.0242526660004,167.685795915997,1,,,,,,,,,,,,,,,sofia,0,2025-08-22_14h44.23.095,tilt_staircase,2023.2.3,120.25361535349536,2025-08-22 14h44.45.271470 -0400,
,,,,,,,,,,,,0,0,0,0,167.69392420799704,,,,,,,,,,,,,,,,,,,,,,,,,,,,,,,,,,,,,,,,,,,,,,,,,,,,,,,negc_negs,30,-15,15,-15,"[5, 2, 1, 0.5]",lin,1,1,8,0,16,93,up,0.5,-2.0,167.6860060409963,-2.0,-30,167.69392420799704,168.19558349999716,168.19558349999716,168.267799250003,168.27438424999855,168.27438424999855,169.49268320800184,0,,,,,,,,,,,,,,,sofia,0,2025-08-22_14h44.23.095,tilt_staircase,2023.2.3,120.25361535349536,2025-08-22 14h44.45.271470 -0400,
,,,,,,,,,,,,0,0,0,0,169.50092854099785,,,,,,,,,,,,,,,,,,,,,,,,,,,,,,,,,,,,,,,,,,,,,,,,,,,,,,,posc_poss,30,15,15,-15,"[5, 2, 1, 0.5]",lin,1,1,8,3,16,94,up,0.5,7.0,169.49289537499862,7.0,30,169.50092854099785,169.99532095799805,169.99532095799805,170.07550233299844,170.07550233299844,170.07550233299844,171.16969958299887,1,,,,,,,,,,,,,,,sofia,0,2025-08-22_14h44.23.095,tilt_staircase,2023.2.3,120.25361535349536,2025-08-22 14h44.45.271470 -0400,
,,,,,,,,,,,,0,0,0,0,171.1783630409991,,,,,,,,,,,,,,,,,,,,,,,,,,,,,,,,,,,,,,,,,,,,,,,,,,,,,,,negc_poss,30,-15,15,-15,"[5, 2, 1, 0.5]",lin,1,1,8,2,16,95,up,0.5,7.0,171.16995304099692,7.0,30,171.1783630409991,171.67934166600025,171.67934166600025,171.7512510000015,171.7576637079983,171.7576637079983,172.3097425829983,1,,,,,,,,,,,,,,,sofia,0,2025-08-22_14h44.23.095,tilt_staircase,2023.2.3,120.25361535349536,2025-08-22 14h44.45.271470 -0400,
,,,,,,,,,,,,0,0,0,0,172.31796033299906,,,,,,,,,,,,,,,,,,,,,,,,,,,,,,,,,,,,,,,,,,,,,,,,,,,,,,,posc_noss,30,15,15,-15,"[5, 2, 1, 0.5]",lin,1,1,8,5,17,96,down,0.5,1.5,172.310008708002,1.5,,172.31796033299906,172.81190916599735,172.81190916599735,172.89303695799754,172.89303695799754,172.89303695799754,173.58623395799805,1,,,,,,,,,,,,,,,sofia,0,2025-08-22_14h44.23.095,tilt_staircase,2023.2.3,120.25361535349536,2025-08-22 14h44.45.271470 -0400,
,,,,,,,,,,,,0,0,0,0,173.5948204160013,,,,,,,,,,,,,,,,,,,,,,,,,,,,,,,,,,,,,,,,,,,,,,,,,,,,,,,posc_negs,30,15,15,-15,"[5, 2, 1, 0.5]",lin,1,1,8,1,17,97,up,0.5,-3.0,173.58647941600066,-3.0,-30,173.5948204160013,174.09547441599716,174.09547441599716,174.16788104100124,174.17480133299978,174.17480133299978,174.85325458300213,0,,,,,,,,,,,,,,,sofia,0,2025-08-22_14h44.23.095,tilt_staircase,2023.2.3,120.25361535349536,2025-08-22 14h44.45.271470 -0400,
,,,,,,,,,,,,0,0,0,0,174.86139304099925,,,,,,,,,,,,,,,,,,,,,,,,,,,,,,,,,,,,,,,,,,,,,,,,,,,,,,,negc_noss,30,-15,15,-15,"[5, 2, 1, 0.5]",lin,1,1,8,4,17,98,down,0.5,0.5,174.8535120000015,0.5,,174.86139304099925,175.36194437499944,175.36194437499944,175.4345745410028,175.44169545800105,175.44169545800105,176.33630608300155,1,,,,,,,,,,,,,,,sofia,0,2025-08-22_14h44.23.095,tilt_staircase,2023.2.3,120.25361535349536,2025-08-22 14h44.45.271470 -0400,
,,,,,,,,,,,,0,0,0,0,176.34441745799995,,,,,,,,,,,,,,,,,,,,,,,,,,,,,,,,,,,,,,,,,,,,,,,,,,,,,,,negc_poss,30,-15,15,-15,"[5, 2, 1, 0.5]",lin,1,1,8,2,17,99,down,0.5,6.5,176.3365109160004,6.5,30,176.34441745799995,176.8459230410008,176.8459230410008,176.91786941600003,176.9242755000014,176.9242755000014,177.65289183300047,1,,,,,,,,,,,,,,,sofia,0,2025-08-22_14h44.23.095,tilt_staircase,2023.2.3,120.25361535349536,2025-08-22 14h44.45.271470 -0400,
,,,,,,,,,,,,0,0,0,0,177.6618816659975,,,,,,,,,,,,,,,,,,,,,,,,,,,,,,,,,,,,,,,,,,,,,,,,,,,,,,,negc_negs,30,-15,15,-15,"[5, 2, 1, 0.5]",lin,1,1,8,0,17,100,up,0.5,-1.5,177.65314020799997,-1.5,-30,177.6618816659975,178.16351283300173,178.16351283300173,178.2346756659972,178.241735040996,178.241735040996,179.02631683299842,0,,,,,,,,,,,,,,,sofia,0,2025-08-22_14h44.23.095,tilt_staircase,2023.2.3,120.25361535349536,2025-08-22 14h44.45.271470 -0400,
,,,,,,,,,,,,0,0,0,0,179.0345932909986,,,,,,,,,,,,,,,,,,,,,,,,,,,,,,,,,,,,,,,,,,,,,,,,,,,,,,,posc_poss,30,15,15,-15,"[5, 2, 1, 0.5]",lin,1,1,8,3,17,101,down,0.5,6.5,179.02656487499917,6.5,30,179.0345932909986,179.52851754100266,179.52851754100266,179.6095687499983,179.6095687499983,179.6095687499983,180.76952229099697,1,,,,,,,,,,,,,,,sofia,0,2025-08-22_14h44.23.095,tilt_staircase,2023.2.3,120.25361535349536,2025-08-22 14h44.45.271470 -0400,
,,,,,,,,,,,,0,0,0,0,180.77826133299823,,,,,,,,,,,,,,,,,,,,,,,,,,,,,,,,,,,,,,,,,,,,,,,,,,,,,,,posc_poss,30,15,15,-15,"[5, 2, 1, 0.5]",lin,1,1,8,3,18,102,down,0.5,6.0,180.76978545799648,6.0,30,180.77826133299823,181.27926220800146,181.27926220800146,181.35131754099712,181.35843095799646,181.35843095799646,182.0931117079963,1,,,,,,,,,,,,,,,sofia,0,2025-08-22_14h44.23.095,tilt_staircase,2023.2.3,120.25361535349536,2025-08-22 14h44.45.271470 -0400,
,,,,,,,,,,,,0,0,0,0,182.10143245800282,,,,,,,,,,,,,,,,,,,,,,,,,,,,,,,,,,,,,,,,,,,,,,,,,,,,,,,negc_negs,30,-15,15,-15,"[5, 2, 1, 0.5]",lin,1,1,8,0,18,103,up,0.5,-1.0,182.0933139580011,-1.0,-30,182.10143245800282,182.59672312499606,182.59672312499606,182.67630583299615,182.67630583299615,182.67630583299615,183.2265185829965,1,,,,,,,,,,,,,,,sofia,0,2025-08-22_14h44.23.095,tilt_staircase,2023.2.3,120.25361535349536,2025-08-22 14h44.45.271470 -0400,
,,,,,,,,,,,,0,0,0,0,183.23481066599925,,,,,,,,,,,,,,,,,,,,,,,,,,,,,,,,,,,,,,,,,,,,,,,,,,,,,,,negc_noss,30,-15,15,-15,"[5, 2, 1, 0.5]",lin,1,1,8,4,18,104,down,0.5,0.0,183.22678195800108,0.0,,183.23481066599925,183.72875858299813,183.72875858299813,183.8101874999993,183.8101874999993,183.8101874999993,184.35239624999667,0,,,,,,,,,,,,,,,sofia,0,2025-08-22_14h44.23.095,tilt_staircase,2023.2.3,120.25361535349536,2025-08-22 14h44.45.271470 -0400,
,,,,,,,,,,,,0,0,0,0,184.3610885829985,,,,,,,,,,,,,,,,,,,,,,,,,,,,,,,,,,,,,,,,,,,,,,,,,,,,,,,negc_poss,30,-15,15,-15,"[5, 2, 1, 0.5]",lin,1,1,8,2,18,105,down,0.5,6.0,184.35264370799996,6.0,30,184.3610885829985,184.8617696250003,184.8617696250003,184.93468425000174,184.94123412499903,184.94123412499903,185.62562154100306,0,,,,,,,,,,,,,,,sofia,0,2025-08-22_14h44.23.095,tilt_staircase,2023.2.3,120.25361535349536,2025-08-22 14h44.45.271470 -0400,
,,,,,,,,,,,,0,0,0,0,185.6342017909992,,,,,,,,,,,,,,,,,,,,,,,,,,,,,,,,,,,,,,,,,,,,,,,,,,,,,,,posc_negs,30,15,15,-15,"[5, 2, 1, 0.5]",lin,1,1,8,1,18,106,up,0.5,-2.5,185.6258681249965,-2.5,-30,185.6342017909992,186.1287290830005,186.1287290830005,186.20863333300076,186.20863333300076,186.20863333300076,186.893495874996,0,,,,,,,,,,,,,,,sofia,0,2025-08-22_14h44.23.095,tilt_staircase,2023.2.3,120.25361535349536,2025-08-22 14h44.45.271470 -0400,
,,,,,,,,,,,,0,0,0,0,186.90144687500288,,,,,,,,,,,,,,,,,,,,,,,,,,,,,,,,,,,,,,,,,,,,,,,,,,,,,,,posc_noss,30,15,15,-15,"[5, 2, 1, 0.5]",lin,1,1,8,5,18,107,down,0.5,1.0,186.89375283299887,1.0,,186.90144687500288,187.39566733300308,187.39566733300308,187.47550158300146,187.47550158300146,187.47550158300146,188.07613258300262,0,,,,,,,,,,,,,,,sofia,0,2025-08-22_14h44.23.095,tilt_staircase,2023.2.3,120.25361535349536,2025-08-22 14h44.45.271470 -0400,
,,,,,,,,,,,,0,0,0,0,188.08415070799674,,,,,,,,,,,,,,,,,,,,,,,,,,,,,,,,,,,,,,,,,,,,,,,,,,,,,,,negc_poss,30,-15,15,-15,"[5, 2, 1, 0.5]",lin,1,1,8,2,19,108,up,0.5,6.5,188.07635937500163,6.5,30,188.08415070799674,188.57883266599674,188.57883266599674,188.658645083,188.658645083,188.658645083,189.6865251249983,0,,,,,,,,,,,,,,,sofia,0,2025-08-22_14h44.23.095,tilt_staircase,2023.2.3,120.25361535349536,2025-08-22 14h44.45.271470 -0400,
,,,,,,,,,,,,0,0,0,0,189.69468604100257,,,,,,,,,,,,,,,,,,,,,,,,,,,,,,,,,,,,,,,,,,,,,,,,,,,,,,,negc_negs,30,-15,15,-15,"[5, 2, 1, 0.5]",lin,1,1,8,0,19,109,down,0.5,-1.5,189.68673295799817,-1.5,-30,189.69468604100257,190.19642341599683,190.19642341599683,190.26808666600118,190.27503162500216,190.27503162500216,190.87599108299764,1,,,,,,,,,,,,,,,sofia,0,2025-08-22_14h44.23.095,tilt_staircase,2023.2.3,120.25361535349536,2025-08-22 14h44.45.271470 -0400,
,,,,,,,,,,,,0,0,0,0,190.8839766250021,,,,,,,,,,,,,,,,,,,,,,,,,,,,,,,,,,,,,,,,,,,,,,,,,,,,,,,posc_noss,30,15,15,-15,"[5, 2, 1, 0.5]",lin,1,1,8,5,19,110,up,0.5,1.5,190.87619762500253,1.5,,190.8839766250021,191.37999633300205,191.37999633300205,191.45897612500266,191.45897612500266,191.45897612500266,193.18656775000272,1,,,,,,,,,,,,,,,sofia,0,2025-08-22_14h44.23.095,tilt_staircase,2023.2.3,120.25361535349536,2025-08-22 14h44.45.271470 -0400,
,,,,,,,,,,,,0,0,0,0,193.19508654099627,,,,,,,,,,,,,,,,,,,,,,,,,,,,,,,,,,,,,,,,,,,,,,,,,,,,,,,posc_negs,30,15,15,-15,"[5, 2, 1, 0.5]",lin,1,1,8,1,19,111,up,0.5,-2.0,193.18682337499922,-2.0,-30,193.19508654099627,193.69556258300145,193.69556258300145,193.768103082999,193.77500724999845,193.77500724999845,194.50341308300267,1,,,,,,,,,,,,,,,sofia,0,2025-08-22_14h44.23.095,tilt_staircase,2023.2.3,120.25361535349536,2025-08-22 14h44.45.271470 -0400,
,,,,,,,,,,,,0,0,0,0,194.511944165999,,,,,,,,,,,,,,,,,,,,,,,,,,,,,,,,,,,,,,,,,,,,,,,,,,,,,,,negc_noss,30,-15,15,-15,"[5, 2, 1, 0.5]",lin,1,1,8,4,19,112,up,0.5,0.5,194.50367962499877,0.5,,194.511944165999,195.01218174999667,195.01218174999667,195.08494066599815,195.09179654099717,195.09179654099717,196.75296220799646,1,,,,,,,,,,,,,,,sofia,0,2025-08-22_14h44.23.095,tilt_staircase,2023.2.3,120.25361535349536,2025-08-22 14h44.45.271470 -0400,
,,,,,,,,,,,,0,0,0,0,196.76175541600242,,,,,,,,,,,,,,,,,,,,,,,,,,,,,,,,,,,,,,,,,,,,,,,,,,,,,,,posc_poss,30,15,15,-15,"[5, 2, 1, 0.5]",lin,1,1,8,3,19,113,down,0.5,5.5,196.75321195799916,5.5,30,196.76175541600242,197.26385687499715,197.26385687499715,197.3345916659964,197.3415807909987,197.3415807909987,198.04334008300066,1,,,,,,,,,,,,,,,sofia,0,2025-08-22_14h44.23.095,tilt_staircase,2023.2.3,120.25361535349536,2025-08-22 14h44.45.271470 -0400,
,,,,,,,,,,,,0,0,0,0,198.051420374999,,,,,,,,,,,,,,,,,,,,,,,,,,,,,,,,,,,,,,,,,,,,,,,,,,,,,,,negc_noss,30,-15,15,-15,"[5, 2, 1, 0.5]",lin,1,1,8,4,20,114,down,0.5,0.0,198.0435664999968,0.0,,198.051420374999,198.54665787499835,198.54665787499835,198.62599837499874,198.62599837499874,198.62599837499874,199.10286520799855,0,,,,,,,,,,,,,,,sofia,0,2025-08-22_14h44.23.095,tilt_staircase,2023.2.3,120.25361535349536,2025-08-22 14h44.45.271470 -0400,
,,,,,,,,,,,,0,0,0,0,199.11091229099839,,,,,,,,,,,,,,,,,,,,,,,,,,,,,,,,,,,,,,,,,,,,,,,,,,,,,,,posc_poss,30,15,15,-15,"[5, 2, 1, 0.5]",lin,1,1,8,3,20,115,down,0.5,5.0,199.10307216599904,5.0,30,199.11091229099839,199.61248124999838,199.61248124999838,199.6848338330019,199.6918020000012,199.6918020000012,200.2529637080006,0,,,,,,,,,,,,,,,sofia,0,2025-08-22_14h44.23.095,tilt_staircase,2023.2.3,120.25361535349536,2025-08-22 14h44.45.271470 -0400,
,,,,,,,,,,,,0,0,0,0,200.26109270800225,,,,,,,,,,,,,,,,,,,,,,,,,,,,,,,,,,,,,,,,,,,,,,,,,,,,,,,posc_noss,30,15,15,-15,"[5, 2, 1, 0.5]",lin,1,1,8,5,20,116,down,0.5,1.0,200.25316949999979,1.0,,200.26109270800225,200.7622257080002,200.7622257080002,200.83441624999978,200.84105204099615,200.84105204099615,201.62649870799942,0,,,,,,,,,,,,,,,sofia,0,2025-08-22_14h44.23.095,tilt_staircase,2023.2.3,120.25361535349536,2025-08-22 14h44.45.271470 -0400,
,,,,,,,,,,,,0,0,0,0,201.63497574999928,,,,,,,,,,,,,,,,,,,,,,,,,,,,,,,,,,,,,,,,,,,,,,,,,,,,,,,negc_poss,30,-15,15,-15,"[5, 2, 1, 0.5]",lin,1,1,8,2,20,117,up,0.5,7.0,201.62677679100307,7.0,30,201.63497574999928,202.12897662499745,202.12897662499745,202.20839379099925,202.20839379099925,202.20839379099925,202.8694738330014,0,,,,,,,,,,,,,,,sofia,0,2025-08-22_14h44.23.095,tilt_staircase,2023.2.3,120.25361535349536,2025-08-22 14h44.45.271470 -0400,
,,,,,,,,,,,,0,0,0,0,202.87807795799745,,,,,,,,,,,,,,,,,,,,,,,,,,,,,,,,,,,,,,,,,,,,,,,,,,,,,,,posc_negs,30,15,15,-15,"[5, 2, 1, 0.5]",lin,1,1,8,1,20,118,down,0.5,-2.5,202.86972408300062,-2.5,-30,202.87807795799745,203.37893379099842,203.37893379099842,203.45161212499806,203.45810779099702,203.45810779099702,204.7863651660009,0,,,,,,,,,,,,,,,sofia,0,2025-08-22_14h44.23.095,tilt_staircase,2023.2.3,120.25361535349536,2025-08-22 14h44.45.271470 -0400,
,,,,,,,,,,,,0,0,0,0,204.7945427079976,,,,,,,,,,,,,,,,,,,,,,,,,,,,,,,,,,,,,,,,,,,,,,,,,,,,,,,negc_negs,30,-15,15,-15,"[5, 2, 1, 0.5]",lin,1,1,8,0,20,119,down,0.5,-2.0,204.7866130409966,-2.0,-30,204.7945427079976,205.29636795799888,205.29636795799888,205.3682686250031,205.3759056659983,205.3759056659983,206.1027322910013,0,,,,,,,,,,,,,,,sofia,0,2025-08-22_14h44.23.095,tilt_staircase,2023.2.3,120.25361535349536,2025-08-22 14h44.45.271470 -0400,
,,,,,,,,,,,,0,0,0,0,206.10803558299813,,,,,,,,,,,,,,,,,,,,,,,,,,,,,,,,,,,,,,,,,,,,,,,,,,,,,,,posc_negs,30,15,15,-15,"[5, 2, 1, 0.5]",lin,1,1,8,1,21,120,up,0.5,-2.0,206.10298308300116,-2.0,-30,206.10803558299813,206.61384845800058,206.61384845800058,206.68493033300183,206.6918886659987,206.6918886659987,207.34300612499646,0,,,,,,,,,,,,,,,sofia,0,2025-08-22_14h44.23.095,tilt_staircase,2023.2.3,120.25361535349536,2025-08-22 14h44.45.271470 -0400,
,,,,,,,,,,,,0,0,0,0,207.3518627500016,,,,,,,,,,,,,,,,,,,,,,,,,,,,,,,,,,,,,,,,,,,,,,,,,,,,,,,negc_noss,30,-15,15,-15,"[5, 2, 1, 0.5]",lin,1,1,8,4,21,121,up,0.5,0.5,207.3432527909972,0.5,,207.3518627500016,207.8460554159974,207.8460554159974,207.92656145799992,207.92656145799992,207.92656145799992,208.77623362500162,0,,,,,,,,,,,,,,,sofia,0,2025-08-22_14h44.23.095,tilt_staircase,2023.2.3,120.25361535349536,2025-08-22 14h44.45.271470 -0400,
,,,,,,,,,,,,0,0,0,0,208.78443900000275,,,,,,,,,,,,,,,,,,,,,,,,,,,,,,,,,,,,,,,,,,,,,,,,,,,,,,,negc_negs,30,-15,15,-15,"[5, 2, 1, 0.5]",lin,1,1,8,0,21,122,up,0.5,-1.5,208.77647133299615,-1.5,-30,208.78443900000275,209.27948045799712,209.27948045799712,209.35970933300268,209.35970933300268,209.35970933300268,209.9537700410001,0,,,,,,,,,,,,,,,sofia,0,2025-08-22_14h44.23.095,tilt_staircase,2023.2.3,120.25361535349536,2025-08-22 14h44.45.271470 -0400,
,,,,,,,,,,,,0,0,0,0,209.96265941599995,,,,,,,,,,,,,,,,,,,,,,,,,,,,,,,,,,,,,,,,,,,,,,,,,,,,,,,posc_noss,30,15,15,-15,"[5, 2, 1, 0.5]",lin,1,1,8,5,21,123,up,0.5,1.5,209.9540130000023,1.5,,209.96265941599995,210.46313287499652,210.46313287499652,210.53432304099988,210.54096758300147,210.54096758300147,211.17039004099934,1,,,,,,,,,,,,,,,sofia,0,2025-08-22_14h44.23.095,tilt_staircase,2023.2.3,120.25361535349536,2025-08-22 14h44.45.271470 -0400,
,,,,,,,,,,,,0,0,0,0,211.17901008299668,,,,,,,,,,,,,,,,,,,,,,,,,,,,,,,,,,,,,,,,,,,,,,,,,,,,,,,posc_poss,30,15,15,-15,"[5, 2, 1, 0.5]",lin,1,1,8,3,21,124,up,0.5,5.5,211.17063387500093,5.5,30,211.17901008299668,211.6797893749972,211.6797893749972,211.75179762500193,211.75882583299972,211.75882583299972,212.66968037500192,1,,,,,,,,,,,,,,,sofia,0,2025-08-22_14h44.23.095,tilt_staircase,2023.2.3,120.25361535349536,2025-08-22 14h44.45.271470 -0400,
,,,,,,,,,,,,0,0,0,0,212.6782481659975,,,,,,,,,,,,,,,,,,,,,,,,,,,,,,,,,,,,,,,,,,,,,,,,,,,,,,,negc_poss,30,-15,15,-15,"[5, 2, 1, 0.5]",lin,1,1,8,2,21,125,up,0.5,7.5,212.66992916599702,7.5,30,212.6782481659975,213.17902679099643,213.17902679099643,213.25168229099654,213.25855820799916,213.25855820799916,214.29343991600035,1,,,,,,,,,,,,,,,sofia,0,2025-08-22_14h44.23.095,tilt_staircase,2023.2.3,120.25361535349536,2025-08-22 14h44.45.271470 -0400,
,,,,,,,,,,,,0,0,0,0,214.3020097080007,,,,,,,,,,,,,,,,,,,,,,,,,,,,,,,,,,,,,,,,,,,,,,,,,,,,,,,negc_noss,30,-15,15,-15,"[5, 2, 1, 0.5]",lin,1,1,8,4,22,126,up,0.5,1.0,214.29370495799958,1.0,,214.3020097080007,214.79670066599647,214.79670066599647,214.87625224999647,214.87625224999647,214.87625224999647,216.51940916600142,0,,,,,,,,,,,,,,,sofia,0,2025-08-22_14h44.23.095,tilt_staircase,2023.2.3,120.25361535349536,2025-08-22 14h44.45.271470 -0400,
,,,,,,,,,,,,0,0,0,0,216.52742145799857,,,,,,,,,,,,,,,,,,,,,,,,,,,,,,,,,,,,,,,,,,,,,,,,,,,,,,,posc_negs,30,15,15,-15,"[5, 2, 1, 0.5]",lin,1,1,8,1,22,127,up,0.5,-1.5,216.5196152080025,-1.5,-30,216.52742145799857,217.0291332909983,217.0291332909983,217.10176133299683,217.1087438329996,217.1087438329996,218.5366642500012,0,,,,,,,,,,,,,,,sofia,0,2025-08-22_14h44.23.095,tilt_staircase,2023.2.3,120.25361535349536,2025-08-22 14h44.45.271470 -0400,
,,,,,,,,,,,,0,0,0,0,218.54514049999852,,,,,,,,,,,,,,,,,,,,,,,,,,,,,,,,,,,,,,,,,,,,,,,,,,,,,,,negc_poss,30,-15,15,-15,"[5, 2, 1, 0.5]",lin,1,1,8,2,22,128,down,0.5,7.0,218.5368700830004,7.0,30,218.54514049999852,219.04643520800164,219.04643520800164,219.1178914159973,219.12424062500213,219.12424062500213,219.71999974999926,1,,,,,,,,,,,,,,,sofia,0,2025-08-22_14h44.23.095,tilt_staircase,2023.2.3,120.25361535349536,2025-08-22 14h44.45.271470 -0400,
,,,,,,,,,,,,0,0,0,0,219.7281732909978,,,,,,,,,,,,,,,,,,,,,,,,,,,,,,,,,,,,,,,,,,,,,,,,,,,,,,,posc_noss,30,15,15,-15,"[5, 2, 1, 0.5]",lin,1,1,8,5,22,129,down,0.5,1.0,219.7202057079994,1.0,,219.7281732909978,220.22897445799754,220.22897445799754,220.30180462499993,220.30866479100223,220.30866479100223,221.18671129099675,1,,,,,,,,,,,,,,,sofia,0,2025-08-22_14h44.23.095,tilt_staircase,2023.2.3,120.25361535349536,2025-08-22 14h44.45.271470 -0400,
,,,,,,,,,,,,0,0,0,0,221.19501483299973,,,,,,,,,,,,,,,,,,,,,,,,,,,,,,,,,,,,,,,,,,,,,,,,,,,,,,,posc_poss,30,15,15,-15,"[5, 2, 1, 0.5]",lin,1,1,8,3,22,130,down,0.5,5.0,221.18692058300076,5.0,30,221.19501483299973,221.69660720800312,221.69660720800312,221.76851829099905,221.77545662500052,221.77545662500052,222.85998541599838,1,,,,,,,,,,,,,,,sofia,0,2025-08-22_14h44.23.095,tilt_staircase,2023.2.3,120.25361535349536,2025-08-22 14h44.45.271470 -0400,
,,,,,,,,,,,,0,0,0,0,222.86829433299863,,,,,,,,,,,,,,,,,,,,,,,,,,,,,,,,,,,,,,,,,,,,,,,,,,,,,,,negc_negs,30,-15,15,-15,"[5, 2, 1, 0.5]",lin,1,1,8,0,22,131,up,0.5,-1.0,222.86022575000243,-1.0,-30,222.86829433299863,223.36245712499658,223.36245712499658,223.4435012909962,223.4435012909962,223.4435012909962,224.29290862500056,0,,,,,,,,,,,,,,,sofia,0,2025-08-22_14h44.23.095,tilt_staircase,2023.2.3,120.25361535349536,2025-08-22 14h44.45.271470 -0400,
,,,,,,,,,,,,0,0,0,0,224.30206491600256,,,,,,,,,,,,,,,,,,,,,,,,,,,,,,,,,,,,,,,,,,,,,,,,,,,,,,,posc_negs,30,15,15,-15,"[5, 2, 1, 0.5]",lin,1,1,8,1,23,132,up,0.5,-1.0,224.29312837500038,-1.0,-30,224.30206491600256,224.79569216600066,224.79569216600066,224.87700708299963,224.87700708299963,224.87700708299963,225.78671487500105,1,,,,,,,,,,,,,,,sofia,0,2025-08-22_14h44.23.095,tilt_staircase,2023.2.3,120.25361535349536,2025-08-22 14h44.45.271470 -0400,
,,,,,,,,,,,,0,0,0,0,225.79532437500166,,,,,,,,,,,,,,,,,,,,,,,,,,,,,,,,,,,,,,,,,,,,,,,,,,,,,,,posc_noss,30,15,15,-15,"[5, 2, 1, 0.5]",lin,1,1,8,5,23,133,down,0.5,0.5,225.78697366599954,0.5,,225.79532437500166,226.2967476249978,226.2967476249978,226.36771591599972,226.37475324999832,226.37475324999832,227.13666958300018,0,,,,,,,,,,,,,,,sofia,0,2025-08-22_14h44.23.095,tilt_staircase,2023.2.3,120.25361535349536,2025-08-22 14h44.45.271470 -0400,
,,,,,,,,,,,,0,0,0,0,227.14498766599718,,,,,,,,,,,,,,,,,,,,,,,,,,,,,,,,,,,,,,,,,,,,,,,,,,,,,,,negc_negs,30,-15,15,-15,"[5, 2, 1, 0.5]",lin,1,1,8,0,23,134,up,0.5,-0.5,227.1369198329994,-0.5,-30,227.14498766599718,227.64568224999675,227.64568224999675,227.7185610000015,227.7250680829966,227.7250680829966,228.5528105830017,0,,,,,,,,,,,,,,,sofia,0,2025-08-22_14h44.23.095,tilt_staircase,2023.2.3,120.25361535349536,2025-08-22 14h44.45.271470 -0400,
,,,,,,,,,,,,0,0,0,0,228.56104512499587,,,,,,,,,,,,,,,,,,,,,,,,,,,,,,,,,,,,,,,,,,,,,,,,,,,,,,,negc_poss,30,-15,15,-15,"[5, 2, 1, 0.5]",lin,1,1,8,2,23,135,down,0.5,6.5,228.55305950000184,6.5,30,228.56104512499587,229.06255966600293,229.06255966600293,229.1355211659975,229.14316958299605,229.14316958299605,229.83610212500207,1,,,,,,,,,,,,,,,sofia,0,2025-08-22_14h44.23.095,tilt_staircase,2023.2.3,120.25361535349536,2025-08-22 14h44.45.271470 -0400,
,,,,,,,,,,,,0,0,0,0,229.8428347079971,,,,,,,,,,,,,,,,,,,,,,,,,,,,,,,,,,,,,,,,,,,,,,,,,,,,,,,negc_noss,30,-15,15,-15,"[5, 2, 1, 0.5]",lin,1,1,8,4,23,136,up,0.5,1.5,229.8362117910001,1.5,,229.8428347079971,230.34651358299743,230.34651358299743,230.41854116600007,230.4255126249991,230.4255126249991,231.71010529100022,1,,,,,,,,,,,,,,,sofia,0,2025-08-22_14h44.23.095,tilt_staircase,2023.2.3,120.25361535349536,2025-08-22 14h44.45.271470 -0400,
,,,,,,,,,,,,0,0,0,0,231.71835579100298,,,,,,,,,,,,,,,,,,,,,,,,,,,,,,,,,,,,,,,,,,,,,,,,,,,,,,,posc_poss,30,15,15,-15,"[5, 2, 1, 0.5]",lin,1,1,8,3,23,137,down,0.5,4.5,231.71031824999955,4.5,30,231.71835579100298,232.21273099999962,232.21273099999962,232.2937950830019,232.2937950830019,232.2937950830019,233.3530388750005,0,,,,,,,,,,,,,,,sofia,0,2025-08-22_14h44.23.095,tilt_staircase,2023.2.3,120.25361535349536,2025-08-22 14h44.45.271470 -0400,
,,,,,,,,,,,,0,0,0,0,233.36099816599744,,,,,,,,,,,,,,,,,,,,,,,,,,,,,,,,,,,,,,,,,,,,,,,,,,,,,,,posc_negs,30,15,15,-15,"[5, 2, 1, 0.5]",lin,1,1,8,1,24,138,down,0.5,-1.5,233.35326350000105,-1.5,-30,233.36099816599744,233.86265304099652,233.86265304099652,233.93538591599645,233.94196216599812,233.94196216599812,234.63675499999954,0,,,,,,,,,,,,,,,sofia,0,2025-08-22_14h44.23.095,tilt_staircase,2023.2.3,120.25361535349536,2025-08-22 14h44.45.271470 -0400,
,,,,,,,,,,,,0,0,0,0,234.64568133300054,,,,,,,,,,,,,,,,,,,,,,,,,,,,,,,,,,,,,,,,,,,,,,,,,,,,,,,negc_negs,30,-15,15,-15,"[5, 2, 1, 0.5]",lin,1,1,8,0,24,139,up,0.5,0.0,234.63702091600135,0.0,-30,234.64568133300054,235.1460747079982,235.1460747079982,235.21863816599944,235.22516745799658,235.22516745799658,235.89369745799922,0,,,,,,,,,,,,,,,sofia,0,2025-08-22_14h44.23.095,tilt_staircase,2023.2.3,120.25361535349536,2025-08-22 14h44.45.271470 -0400,
,,,,,,,,,,,,0,0,0,0,235.90210316600133,,,,,,,,,,,,,,,,,,,,,,,,,,,,,,,,,,,,,,,,,,,,,,,,,,,,,,,negc_poss,30,-15,15,-15,"[5, 2, 1, 0.5]",lin,1,1,8,2,24,140,down,0.5,6.0,235.89394729099877,6.0,30,235.90210316600133,236.3979295829995,236.3979295829995,236.47702637499606,236.47702637499606,236.47702637499606,237.42676958299853,0,,,,,,,,,,,,,,,sofia,0,2025-08-22_14h44.23.095,tilt_staircase,2023.2.3,120.25361535349536,2025-08-22 14h44.45.271470 -0400,
,,,,,,,,,,,,0,0,0,0,237.43493891599792,,,,,,,,,,,,,,,,,,,,,,,,,,,,,,,,,,,,,,,,,,,,,,,,,,,,,,,negc_noss,30,-15,15,-15,"[5, 2, 1, 0.5]",lin,1,1,8,4,24,141,down,0.5,1.0,237.42697824999777,1.0,,237.43493891599792,237.92986133300292,237.92986133300292,238.01041987499775,238.01041987499775,238.01041987499775,238.87016674999904,0,,,,,,,,,,,,,,,sofia,0,2025-08-22_14h44.23.095,tilt_staircase,2023.2.3,120.25361535349536,2025-08-22 14h44.45.271470 -0400,
,,,,,,,,,,,,0,0,0,0,238.87862679099635,,,,,,,,,,,,,,,,,,,,,,,,,,,,,,,,,,,,,,,,,,,,,,,,,,,,,,,posc_noss,30,15,15,-15,"[5, 2, 1, 0.5]",lin,1,1,8,5,24,142,up,0.5,1.0,238.8704184579983,1.0,,238.87862679099635,239.3793542909989,239.3793542909989,239.45193604099768,239.45889958299813,239.45889958299813,240.0601642499969,1,,,,,,,,,,,,,,,sofia,0,2025-08-22_14h44.23.095,tilt_staircase,2023.2.3,120.25361535349536,2025-08-22 14h44.45.271470 -0400,
,,,,,,,,,,,,0,0,0,0,240.0683452910016,,,,,,,,,,,,,,,,,,,,,,,,,,,,,,,,,,,,,,,,,,,,,,,,,,,,,,,posc_poss,30,15,15,-15,"[5, 2, 1, 0.5]",lin,1,1,8,3,24,143,up,0.5,5.0,240.06037433299934,5.0,30,240.0683452910016,240.56287520800106,240.56287520800106,240.64327225000306,240.64327225000306,240.64327225000306,241.65358283300156,1,,,,,,,,,,,,,,,sofia,0,2025-08-22_14h44.23.095,tilt_staircase,2023.2.3,120.25361535349536,2025-08-22 14h44.45.271470 -0400,
,,,,,,,,,,,,0,0,0,0,241.66248483300296,,,,,,,,,,,,,,,,,,,,,,,,,,,,,,,,,,,,,,,,,,,,,,,,,,,,,,,posc_noss,30,15,15,-15,"[5, 2, 1, 0.5]",lin,1,1,8,5,25,144,down,0.5,0.5,241.65385362500092,0.5,,241.66248483300296,242.1627626249974,242.1627626249974,242.23533524999948,242.24243520799791,242.24243520799791,243.03692137500184,1,,,,,,,,,,,,,,,sofia,0,2025-08-22_14h44.23.095,tilt_staircase,2023.2.3,120.25361535349536,2025-08-22 14h44.45.271470 -0400,
,,,,,,,,,,,,0,0,0,0,243.04566116599744,,,,,,,,,,,,,,,,,,,,,,,,,,,,,,,,,,,,,,,,,,,,,,,,,,,,,,,posc_poss,30,15,15,-15,"[5, 2, 1, 0.5]",lin,1,1,8,3,25,145,down,0.5,4.5,243.0372647080003,4.5,30,243.04566116599744,243.5468631659969,243.5468631659969,243.6186949999974,243.62517229100195,243.62517229100195,244.25326979099918,0,,,,,,,,,,,,,,,sofia,0,2025-08-22_14h44.23.095,tilt_staircase,2023.2.3,120.25361535349536,2025-08-22 14h44.45.271470 -0400,
,,,,,,,,,,,,0,0,0,0,244.26128058299946,,,,,,,,,,,,,,,,,,,,,,,,,,,,,,,,,,,,,,,,,,,,,,,,,,,,,,,negc_poss,30,-15,15,-15,"[5, 2, 1, 0.5]",lin,1,1,8,2,25,146,up,0.5,6.5,244.2535957500004,6.5,30,244.26128058299946,244.76395395799773,244.76395395799773,244.83540991599875,244.8423764159961,244.8423764159961,245.89307045799796,0,,,,,,,,,,,,,,,sofia,0,2025-08-22_14h44.23.095,tilt_staircase,2023.2.3,120.25361535349536,2025-08-22 14h44.45.271470 -0400,
,,,,,,,,,,,,0,0,0,0,245.90141604100063,,,,,,,,,,,,,,,,,,,,,,,,,,,,,,,,,,,,,,,,,,,,,,,,,,,,,,,negc_negs,30,-15,15,-15,"[5, 2, 1, 0.5]",lin,1,1,8,0,25,147,up,0.5,0.5,245.893338707996,0.5,-30,245.90141604100063,246.3967216250021,246.3967216250021,246.4764526250001,246.4764526250001,246.4764526250001,247.77725062499667,1,,,,,,,,,,,,,,,sofia,0,2025-08-22_14h44.23.095,tilt_staircase,2023.2.3,120.25361535349536,2025-08-22 14h44.45.271470 -0400,
,,,,,,,,,,,,0,0,0,0,247.78542179099895,,,,,,,,,,,,,,,,,,,,,,,,,,,,,,,,,,,,,,,,,,,,,,,,,,,,,,,posc_negs,30,15,15,-15,"[5, 2, 1, 0.5]",lin,1,1,8,1,25,148,up,0.5,-1.0,247.777497957999,-1.0,-30,247.78542179099895,248.28023179100273,248.28023179100273,248.36037545799627,248.36037545799627,248.36037545799627,249.03655050000089,0,,,,,,,,,,,,,,,sofia,0,2025-08-22_14h44.23.095,tilt_staircase,2023.2.3,120.25361535349536,2025-08-22 14h44.45.271470 -0400,
,,,,,,,,,,,,0,0,0,0,249.0451313329977,,,,,,,,,,,,,,,,,,,,,,,,,,,,,,,,,,,,,,,,,,,,,,,,,,,,,,,negc_noss,30,-15,15,-15,"[5, 2, 1, 0.5]",lin,1,1,8,4,25,149,up,0.5,1.5,249.03680124999664,1.5,,249.0451313329977,249.54691345799802,249.54691345799802,249.61795087499922,249.62495325000054,249.62495325000054,250.9703837909983,1,,,,,,,,,,,,,,,sofia,0,2025-08-22_14h44.23.095,tilt_staircase,2023.2.3,120.25361535349536,2025-08-22 14h44.45.271470 -0400,
,,,,,,,,,,,,1,0,1,0,255.9755335000009,,,,,,,,,,,,,,,,,,,,,,,,,,,,,,,,,,,,,,,,,,,,,,,,,,,,,,,negc_negs,30,-15,15,-15,"[5, 2, 1, 0.5]",lin,1,1,8,0,1,0,start,5,-15,255.96644987499894,-15,-30,255.9755335000009,256.46298558299895,256.46298558299895,256.53546866599936,256.5424958329968,256.5424958329968,258.46068062500126,0,250.97049037500256,250.97884150000027,250.97884150000027,255.9535649160025,space,4.9669041670058505,None,,,,,,,,sofia,0,2025-08-22_14h44.23.095,tilt_staircase,2023.2.3,120.25361535349536,2025-08-22 14h44.45.271470 -0400,
,,,,,,,,,,,,1,0,1,0,258.46960554100224,,,,,,,,,,,,,,,,,,,,,,,,,,,,,,,,,,,,,,,,,,,,,,,,,,,,,,,negc_poss,30,-15,15,-15,"[5, 2, 1, 0.5]",lin,1,1,8,2,1,1,start,5,-15,258.4609363330019,-15,30,258.46960554100224,258.9630611659959,258.9630611659959,259.0438922079993,259.0438922079993,259.0438922079993,259.52713620800205,0,,,,,,,,,,,,,,,sofia,0,2025-08-22_14h44.23.095,tilt_staircase,2023.2.3,120.25361535349536,2025-08-22 14h44.45.271470 -0400,
,,,,,,,,,,,,1,0,1,0,259.5356015829966,,,,,,,,,,,,,,,,,,,,,,,,,,,,,,,,,,,,,,,,,,,,,,,,,,,,,,,posc_poss,30,15,15,-15,"[5, 2, 1, 0.5]",lin,1,1,8,3,1,2,start,5,15,259.5273791660002,15,30,259.5356015829966,260.03055316599784,260.03055316599784,260.1099869999962,260.1099869999962,260.1099869999962,260.5866177499993,1,,,,,,,,,,,,,,,sofia,0,2025-08-22_14h44.23.095,tilt_staircase,2023.2.3,120.25361535349536,2025-08-22 14h44.45.271470 -0400,
,,,,,,,,,,,,1,0,1,0,260.5947821250011,,,,,,,,,,,,,,,,,,,,,,,,,,,,,,,,,,,,,,,,,,,,,,,,,,,,,,,posc_noss,30,15,15,-15,"[5, 2, 1, 0.5]",lin,1,1,8,5,1,3,start,5,15,260.58682233299623,15,,260.5947821250011,261.0960582080006,261.0960582080006,261.1689258749975,261.1758592499973,261.1758592499973,261.63645816600183,1,,,,,,,,,,,,,,,sofia,0,2025-08-22_14h44.23.095,tilt_staircase,2023.2.3,120.25361535349536,2025-08-22 14h44.45.271470 -0400,
,,,,,,,,,,,,1,0,1,0,261.64495375000115,,,,,,,,,,,,,,,,,,,,,,,,,,,,,,,,,,,,,,,,,,,,,,,,,,,,,,,posc_negs,30,15,15,-15,"[5, 2, 1, 0.5]",lin,1,1,8,1,1,4,start,5,15,261.6367014580028,15,-30,261.64495375000115,262.1469554159994,262.1469554159994,262.2189064159975,262.22588350000296,262.22588350000296,262.68621020799765,1,,,,,,,,,,,,,,,sofia,0,2025-08-22_14h44.23.095,tilt_staircase,2023.2.3,120.25361535349536,2025-08-22 14h44.45.271470 -0400,
,,,,,,,,,,,,1,0,1,0,262.6921011250015,,,,,,,,,,,,,,,,,,,,,,,,,,,,,,,,,,,,,,,,,,,,,,,,,,,,,,,negc_noss,30,-15,15,-15,"[5, 2, 1, 0.5]",lin,1,1,8,4,1,5,start,5,-15,262.68643387500197,-15,,262.6921011250015,263.1972433330011,263.1972433330011,263.2688839159964,263.27582308300043,263.27582308300043,263.77691120799864,0,,,,,,,,,,,,,,,sofia,0,2025-08-22_14h44.23.095,tilt_staircase,2023.2.3,120.25361535349536,2025-08-22 14h44.45.271470 -0400,
,,,,,,,,,,,,1,0,1,0,263.78504950000206,,,,,,,,,,,,,,,,,,,,,,,,,,,,,,,,,,,,,,,,,,,,,,,,,,,,,,,posc_poss,30,15,15,-15,"[5, 2, 1, 0.5]",lin,1,1,8,3,2,6,down,5,10,263.77713120800036,10,30,263.78504950000206,264.2796459579986,264.2796459579986,264.36057037499995,264.36057037499995,264.36057037499995,265.8046478749966,1,,,,,,,,,,,,,,,sofia,0,2025-08-22_14h44.23.095,tilt_staircase,2023.2.3,120.25361535349536,2025-08-22 14h44.45.271470 -0400,
,,,,,,,,,,,,1,0,1,0,265.81317179100006,,,,,,,,,,,,,,,,,,,,,,,,,,,,,,,,,,,,,,,,,,,,,,,,,,,,,,,posc_negs,30,15,15,-15,"[5, 2, 1, 0.5]",lin,1,1,8,1,2,7,down,5,10,265.8048960829983,10,-30,265.81317179100006,266.3135065410024,266.3135065410024,266.38573175000056,266.39273062499706,266.39273062499706,267.1043129160025,1,,,,,,,,,,,,,,,sofia,0,2025-08-22_14h44.23.095,tilt_staircase,2023.2.3,120.25361535349536,2025-08-22 14h44.45.271470 -0400,
,,,,,,,,,,,,1,0,1,0,267.112460999997,,,,,,,,,,,,,,,,,,,,,,,,,,,,,,,,,,,,,,,,,,,,,,,,,,,,,,,negc_noss,30,-15,15,-15,"[5, 2, 1, 0.5]",lin,1,1,8,4,2,8,up,5,-10,267.104568499999,-10,,267.112460999997,267.6135294159976,267.6135294159976,267.68555587500305,267.6925346249991,267.6925346249991,268.1536112909962,0,,,,,,,,,,,,,,,sofia,0,2025-08-22_14h44.23.095,tilt_staircase,2023.2.3,120.25361535349536,2025-08-22 14h44.45.271470 -0400,
,,,,,,,,,,,,1,0,1,0,268.16184195799724,,,,,,,,,,,,,,,,,,,,,,,,,,,,,,,,,,,,,,,,,,,,,,,,,,,,,,,negc_negs,30,-15,15,-15,"[5, 2, 1, 0.5]",lin,1,1,8,0,2,9,up,5,-10,268.1538178330011,-10,-30,268.16184195799724,268.6634697909976,268.6634697909976,268.7439137909969,268.7439137909969,268.7439137909969,269.32020433300204,0,,,,,,,,,,,,,,,sofia,0,2025-08-22_14h44.23.095,tilt_staircase,2023.2.3,120.25361535349536,2025-08-22 14h44.45.271470 -0400,
,,,,,,,,,,,,1,0,1,0,269.32842583300226,,,,,,,,,,,,,,,,,,,,,,,,,,,,,,,,,,,,,,,,,,,,,,,,,,,,,,,posc_noss,30,15,15,-15,"[5, 2, 1, 0.5]",lin,1,1,8,5,2,10,down,5,10,269.3204107909987,10,,269.32842583300226,269.82993158300087,269.82993158300087,269.9023150829962,269.909263290996,269.909263290996,270.47044483300124,1,,,,,,,,,,,,,,,sofia,0,2025-08-22_14h44.23.095,tilt_staircase,2023.2.3,120.25361535349536,2025-08-22 14h44.45.271470 -0400,
,,,,,,,,,,,,1,0,1,0,270.4792600829969,,,,,,,,,,,,,,,,,,,,,,,,,,,,,,,,,,,,,,,,,,,,,,,,,,,,,,,negc_poss,30,-15,15,-15,"[5, 2, 1, 0.5]",lin,1,1,8,2,2,11,up,5,-10,270.4706894159972,-10,30,270.4792600829969,270.97928174999834,270.97928174999834,271.0523117499979,271.0592838329976,271.0592838329976,271.56048191599984,0,,,,,,,,,,,,,,,sofia,0,2025-08-22_14h44.23.095,tilt_staircase,2023.2.3,120.25361535349536,2025-08-22 14h44.45.271470 -0400,
,,,,,,,,,,,,1,0,1,0,271.5686102499967,,,,,,,,,,,,,,,,,,,,,,,,,,,,,,,,,,,,,,,,,,,,,,,,,,,,,,,posc_poss,30,15,15,-15,"[5, 2, 1, 0.5]",lin,1,1,8,3,3,12,down,5,5,271.5606977080024,5,30,271.5686102499967,272.06289770799776,272.06289770799776,272.1439630410023,272.1439630410023,272.1439630410023,272.7449320000014,0,,,,,,,,,,,,,,,sofia,0,2025-08-22_14h44.23.095,tilt_staircase,2023.2.3,120.25361535349536,2025-08-22 14h44.45.271470 -0400,
,,,,,,,,,,,,1,0,1,0,272.7692162500025,,,,,,,,,,,,,,,,,,,,,,,,,,,,,,,,,,,,,,,,,,,,,,,,,,,,,,,posc_negs,30,15,15,-15,"[5, 2, 1, 0.5]",lin,1,1,8,1,3,13,down,5,5,272.74517587500304,5,-30,272.7692162500025,273.2464517080007,273.2464517080007,273.32682066599955,273.32682066599955,273.32682066599955,273.94360900000174,1,,,,,,,,,,,,,,,sofia,0,2025-08-22_14h44.23.095,tilt_staircase,2023.2.3,120.25361535349536,2025-08-22 14h44.45.271470 -0400,
,,,,,,,,,,,,1,0,1,0,273.952217500002,,,,,,,,,,,,,,,,,,,,,,,,,,,,,,,,,,,,,,,,,,,,,,,,,,,,,,,posc_noss,30,15,15,-15,"[5, 2, 1, 0.5]",lin,1,1,8,5,3,14,down,5,5,273.94385145799606,5,,273.952217500002,274.44715587500104,274.44715587500104,274.5270762079963,274.5270762079963,274.5270762079963,275.9938353749967,1,,,,,,,,,,,,,,,sofia,0,2025-08-22_14h44.23.095,tilt_staircase,2023.2.3,120.25361535349536,2025-08-22 14h44.45.271470 -0400,
,,,,,,,,,,,,1,0,1,0,276.00179258299613,,,,,,,,,,,,,,,,,,,,,,,,,,,,,,,,,,,,,,,,,,,,,,,,,,,,,,,negc_poss,30,-15,15,-15,"[5, 2, 1, 0.5]",lin,1,1,8,2,3,15,up,5,-5,275.99403775000246,-5,30,276.00179258299613,276.4963056659981,276.4963056659981,276.57624837500043,276.57624837500043,276.57624837500043,277.06058250000206,0,,,,,,,,,,,,,,,sofia,0,2025-08-22_14h44.23.095,tilt_staircase,2023.2.3,120.25361535349536,2025-08-22 14h44.45.271470 -0400,
,,,,,,,,,,,,1,0,1,0,277.0692896659966,,,,,,,,,,,,,,,,,,,,,,,,,,,,,,,,,,,,,,,,,,,,,,,,,,,,,,,negc_negs,30,-15,15,-15,"[5, 2, 1, 0.5]",lin,1,1,8,0,3,16,up,5,-5,277.0608355410004,-5,-30,277.0692896659966,277.56387525000173,277.56387525000173,277.6434935829966,277.6434935829966,277.6434935829966,278.2535298329967,0,,,,,,,,,,,,,,,sofia,0,2025-08-22_14h44.23.095,tilt_staircase,2023.2.3,120.25361535349536,2025-08-22 14h44.45.271470 -0400,
,,,,,,,,,,,,1,0,1,0,278.262179790996,,,,,,,,,,,,,,,,,,,,,,,,,,,,,,,,,,,,,,,,,,,,,,,,,,,,,,,negc_noss,30,-15,15,-15,"[5, 2, 1, 0.5]",lin,1,1,8,4,3,17,up,5,-5,278.2537684159979,-5,,278.262179790996,278.7631320829969,278.7631320829969,278.8358818330016,278.8427171250005,278.8427171250005,279.3875232499995,0,,,,,,,,,,,,,,,sofia,0,2025-08-22_14h44.23.095,tilt_staircase,2023.2.3,120.25361535349536,2025-08-22 14h44.45.271470 -0400,
,,,,,,,,,,,,1,0,1,0,279.3959736659963,,,,,,,,,,,,,,,,,,,,,,,,,,,,,,,,,,,,,,,,,,,,,,,,,,,,,,,posc_poss,30,15,15,-15,"[5, 2, 1, 0.5]",lin,1,1,8,3,4,18,up,2,7,279.38778725000157,7,30,279.3959736659963,279.89625404099934,279.89625404099934,279.96909429100197,279.9759920409997,279.9759920409997,280.8200545829968,1,,,,,,,,,,,,,,,sofia,0,2025-08-22_14h44.23.095,tilt_staircase,2023.2.3,120.25361535349536,2025-08-22 14h44.45.271470 -0400,
,,,,,,,,,,,,1,0,1,0,280.8286913330012,,,,,,,,,,,,,,,,,,,,,,,,,,,,,,,,,,,,,,,,,,,,,,,,,,,,,,,negc_negs,30,-15,15,-15,"[5, 2, 1, 0.5]",lin,1,1,8,0,4,19,up,5,0,280.8202612910027,0,-30,280.8286913330012,281.32977912500064,281.32977912500064,281.4024850409987,281.4094968749996,281.4094968749996,282.15405541600194,1,,,,,,,,,,,,,,,sofia,0,2025-08-22_14h44.23.095,tilt_staircase,2023.2.3,120.25361535349536,2025-08-22 14h44.45.271470 -0400,
,,,,,,,,,,,,1,0,1,0,282.1625504580006,,,,,,,,,,,,,,,,,,,,,,,,,,,,,,,,,,,,,,,,,,,,,,,,,,,,,,,negc_noss,30,-15,15,-15,"[5, 2, 1, 0.5]",lin,1,1,8,4,4,20,up,5,0,282.1543042080011,0,,282.1625504580006,282.66318124999816,282.66318124999816,282.7358054159995,282.74275983299594,282.74275983299594,283.36102912500064,0,,,,,,,,,,,,,,,sofia,0,2025-08-22_14h44.23.095,tilt_staircase,2023.2.3,120.25361535349536,2025-08-22 14h44.45.271470 -0400,
,,,,,,,,,,,,1,0,1,0,283.36927083299815,,,,,,,,,,,,,,,,,,,,,,,,,,,,,,,,,,,,,,,,,,,,,,,,,,,,,,,posc_noss,30,15,15,-15,"[5, 2, 1, 0.5]",lin,1,1,8,5,4,21,down,5,0,283.3612734999988,0,,283.36927083299815,283.86338983300084,283.86338983300084,283.9440706250025,283.9440706250025,283.9440706250025,285.02705224999954,0,,,,,,,,,,,,,,,sofia,0,2025-08-22_14h44.23.095,tilt_staircase,2023.2.3,120.25361535349536,2025-08-22 14h44.45.271470 -0400,
,,,,,,,,,,,,1,0,1,0,285.03516204100015,,,,,,,,,,,,,,,,,,,,,,,,,,,,,,,,,,,,,,,,,,,,,,,,,,,,,,,posc_negs,30,15,15,-15,"[5, 2, 1, 0.5]",lin,1,1,8,1,4,22,down,5,0,285.0272536249977,0,-30,285.03516204100015,285.53000412500114,285.53000412500114,285.6103707500006,285.6103707500006,285.6103707500006,286.5275045410017,1,,,,,,,,,,,,,,,sofia,0,2025-08-22_14h44.23.095,tilt_staircase,2023.2.3,120.25361535349536,2025-08-22 14h44.45.271470 -0400,
,,,,,,,,,,,,1,0,1,0,286.53590925000026,,,,,,,,,,,,,,,,,,,,,,,,,,,,,,,,,,,,,,,,,,,,,,,,,,,,,,,negc_poss,30,-15,15,-15,"[5, 2, 1, 0.5]",lin,1,1,8,2,4,23,up,5,0,286.5277542909971,0,30,286.53590925000026,287.030425666002,287.030425666002,287.1106146660022,287.1106146660022,287.1106146660022,287.6705773329959,0,,,,,,,,,,,,,,,sofia,0,2025-08-22_14h44.23.095,tilt_staircase,2023.2.3,120.25361535349536,2025-08-22 14h44.45.271470 -0400,
,,,,,,,,,,,,1,0,1,0,287.67853395800194,,,,,,,,,,,,,,,,,,,,,,,,,,,,,,,,,,,,,,,,,,,,,,,,,,,,,,,posc_negs,30,15,15,-15,"[5, 2, 1, 0.5]",lin,1,1,8,1,5,24,down,5,-5,287.670838500002,-5,-30,287.67853395800194,288.1803996660019,288.1803996660019,288.25176012500015,288.2584018330017,288.2584018330017,289.6777628330019,0,,,,,,,,,,,,,,,sofia,0,2025-08-22_14h44.23.095,tilt_staircase,2023.2.3,120.25361535349536,2025-08-22 14h44.45.271470 -0400,
,,,,,,,,,,,,1,0,1,0,289.68602258300234,,,,,,,,,,,,,,,,,,,,,,,,,,,,,,,,,,,,,,,,,,,,,,,,,,,,,,,posc_poss,30,15,15,-15,"[5, 2, 1, 0.5]",lin,1,1,8,3,5,25,down,1,6,289.6780102499979,6,30,289.68602258300234,290.1803114159993,290.1803114159993,290.26015950000146,290.26015950000146,290.26015950000146,290.79402329099685,0,,,,,,,,,,,,,,,sofia,0,2025-08-22_14h44.23.095,tilt_staircase,2023.2.3,120.25361535349536,2025-08-22 14h44.45.271470 -0400,
,,,,,,,,,,,,1,0,1,0,290.80230758299876,,,,,,,,,,,,,,,,,,,,,,,,,,,,,,,,,,,,,,,,,,,,,,,,,,,,,,,posc_noss,30,15,15,-15,"[5, 2, 1, 0.5]",lin,1,1,8,5,5,26,up,2,2,290.79429700000037,2,,290.80230758299876,291.2974069999982,291.2974069999982,291.3766621249961,291.3766621249961,291.3766621249961,291.9038229159996,1,,,,,,,,,,,,,,,sofia,0,2025-08-22_14h44.23.095,tilt_staircase,2023.2.3,120.25361535349536,2025-08-22 14h44.45.271470 -0400,
,,,,,,,,,,,,1,0,1,0,291.9124799159981,,,,,,,,,,,,,,,,,,,,,,,,,,,,,,,,,,,,,,,,,,,,,,,,,,,,,,,negc_poss,30,-15,15,-15,"[5, 2, 1, 0.5]",lin,1,1,8,2,5,27,up,5,5,291.9040683330022,5,30,291.9124799159981,292.41311454099923,292.41311454099923,292.4859608330007,292.4928848330019,292.4928848330019,294.7610592080018,0,,,,,,,,,,,,,,,sofia,0,2025-08-22_14h44.23.095,tilt_staircase,2023.2.3,120.25361535349536,2025-08-22 14h44.45.271470 -0400,
,,,,,,,,,,,,1,0,1,0,294.76921429100184,,,,,,,,,,,,,,,,,,,,,,,,,,,,,,,,,,,,,,,,,,,,,,,,,,,,,,,negc_noss,30,-15,15,-15,"[5, 2, 1, 0.5]",lin,1,1,8,4,5,28,up,5,5,294.76130691599974,5,,294.76921429100184,295.2630134580031,295.2630134580031,295.34358924999833,295.34358924999833,295.34358924999833,295.8803628329988,1,,,,,,,,,,,,,,,sofia,0,2025-08-22_14h44.23.095,tilt_staircase,2023.2.3,120.25361535349536,2025-08-22 14h44.45.271470 -0400,
,,,,,,,,,,,,1,0,1,0,295.8860711660018,,,,,,,,,,,,,,,,,,,,,,,,,,,,,,,,,,,,,,,,,,,,,,,,,,,,,,,negc_negs,30,-15,15,-15,"[5, 2, 1, 0.5]",lin,1,1,8,0,5,29,down,2,-2,295.880570082998,-2,-30,295.8860711660018,296.3857336250003,296.3857336250003,296.4614343330031,296.469625208003,296.469625208003,297.7711274579997,0,,,,,,,,,,,,,,,sofia,0,2025-08-22_14h44.23.095,tilt_staircase,2023.2.3,120.25361535349536,2025-08-22 14h44.45.271470 -0400,
,,,,,,,,,,,,1,0,1,0,297.7801455000008,,,,,,,,,,,,,,,,,,,,,,,,,,,,,,,,,,,,,,,,,,,,,,,,,,,,,,,posc_noss,30,15,15,-15,"[5, 2, 1, 0.5]",lin,1,1,8,5,6,30,down,1,1,297.7713995000013,1,,297.7801455000008,298.2802005830017,298.2802005830017,298.35261320800055,298.35957658299594,298.35957658299594,299.4277880410009,1,,,,,,,,,,,,,,,sofia,0,2025-08-22_14h44.23.095,tilt_staircase,2023.2.3,120.25361535349536,2025-08-22 14h44.45.271470 -0400,
,,,,,,,,,,,,1,0,1,0,299.4360613329991,,,,,,,,,,,,,,,,,,,,,,,,,,,,,,,,,,,,,,,,,,,,,,,,,,,,,,,negc_noss,30,-15,15,-15,"[5, 2, 1, 0.5]",lin,1,1,8,4,6,31,down,2,3,299.4280272499964,3,,299.4360613329991,299.93050829099957,299.93050829099957,300.01155687499704,300.01155687499704,300.01155687499704,300.5107499579972,1,,,,,,,,,,,,,,,sofia,0,2025-08-22_14h44.23.095,tilt_staircase,2023.2.3,120.25361535349536,2025-08-22 14h44.45.271470 -0400,
,,,,,,,,,,,,1,0,1,0,300.51934533299936,,,,,,,,,,,,,,,,,,,,,,,,,,,,,,,,,,,,,,,,,,,,,,,,,,,,,,,negc_negs,30,-15,15,-15,"[5, 2, 1, 0.5]",lin,1,1,8,0,6,32,up,1,-1,300.5109927079975,-1,-30,300.51934533299936,301.0142250830031,301.0142250830031,301.09403279099934,301.09403279099934,301.09403279099934,301.8941295830009,0,,,,,,,,,,,,,,,sofia,0,2025-08-22_14h44.23.095,tilt_staircase,2023.2.3,120.25361535349536,2025-08-22 14h44.45.271470 -0400,
,,,,,,,,,,,,1,0,1,0,301.90253995799867,,,,,,,,,,,,,,,,,,,,,,,,,,,,,,,,,,,,,,,,,,,,,,,,,,,,,,,posc_negs,30,15,15,-15,"[5, 2, 1, 0.5]",lin,1,1,8,1,6,33,up,2,-3,301.8943702499964,-3,-30,301.90253995799867,302.39758054100093,302.39758054100093,302.4770749579984,302.4770749579984,302.4770749579984,303.0874316659974,0,,,,,,,,,,,,,,,sofia,0,2025-08-22_14h44.23.095,tilt_staircase,2023.2.3,120.25361535349536,2025-08-22 14h44.45.271470 -0400,
,,,,,,,,,,,,1,0,1,0,303.0957635829982,,,,,,,,,,,,,,,,,,,,,,,,,,,,,,,,,,,,,,,,,,,,,,,,,,,,,,,posc_poss,30,15,15,-15,"[5, 2, 1, 0.5]",lin,1,1,8,3,6,34,up,0.5,6.5,303.08768079100264,6.5,30,303.0957635829982,303.5983497909983,303.5983497909983,303.6693487500015,303.6763623329971,303.6763623329971,304.4372472499963,0,,,,,,,,,,,,,,,sofia,0,2025-08-22_14h44.23.095,tilt_staircase,2023.2.3,120.25361535349536,2025-08-22 14h44.45.271470 -0400,
,,,,,,,,,,,,1,0,1,0,304.4457612909973,,,,,,,,,,,,,,,,,,,,,,,,,,,,,,,,,,,,,,,,,,,,,,,,,,,,,,,negc_poss,30,-15,15,-15,"[5, 2, 1, 0.5]",lin,1,1,8,2,6,35,up,5,10,304.43749283299985,10,30,304.4457612909973,304.94792558300105,304.94792558300105,305.0193713330009,305.0263374999995,305.0263374999995,305.63720012499834,1,,,,,,,,,,,,,,,sofia,0,2025-08-22_14h44.23.095,tilt_staircase,2023.2.3,120.25361535349536,2025-08-22 14h44.45.271470 -0400,
,,,,,,,,,,,,1,0,1,0,305.6453104999964,,,,,,,,,,,,,,,,,,,,,,,,,,,,,,,,,,,,,,,,,,,,,,,,,,,,,,,posc_negs,30,15,15,-15,"[5, 2, 1, 0.5]",lin,1,1,8,1,7,36,up,2,-1,305.6374656659973,-1,-30,305.6453104999964,306.1467248330009,306.1467248330009,306.21943770800135,306.22631333299796,306.22631333299796,307.0604754579981,0,,,,,,,,,,,,,,,sofia,0,2025-08-22_14h44.23.095,tilt_staircase,2023.2.3,120.25361535349536,2025-08-22 14h44.45.271470 -0400,
,,,,,,,,,,,,1,0,1,0,307.0696602079988,,,,,,,,,,,,,,,,,,,,,,,,,,,,,,,,,,,,,,,,,,,,,,,,,,,,,,,negc_negs,30,-15,15,-15,"[5, 2, 1, 0.5]",lin,1,1,8,0,7,37,up,1,0,307.0606840830005,0,-30,307.0696602079988,307.5634077499999,307.5634077499999,307.6438216250026,307.6438216250026,307.6438216250026,308.1542265410026,1,,,,,,,,,,,,,,,sofia,0,2025-08-22_14h44.23.095,tilt_staircase,2023.2.3,120.25361535349536,2025-08-22 14h44.45.271470 -0400,
,,,,,,,,,,,,1,0,1,0,308.16205512500164,,,,,,,,,,,,,,,,,,,,,,,,,,,,,,,,,,,,,,,,,,,,,,,,,,,,,,,negc_noss,30,-15,15,-15,"[5, 2, 1, 0.5]",lin,1,1,8,4,7,38,down,2,1,308.15445100000215,1,,308.16205512500164,308.66414424999675,308.66414424999675,308.73606987499807,308.74300712499826,308.74300712499826,309.57786154100177,1,,,,,,,,,,,,,,,sofia,0,2025-08-22_14h44.23.095,tilt_staircase,2023.2.3,120.25361535349536,2025-08-22 14h44.45.271470 -0400,
,,,,,,,,,,,,1,0,1,0,309.58676712500164,,,,,,,,,,,,,,,,,,,,,,,,,,,,,,,,,,,,,,,,,,,,,,,,,,,,,,,posc_noss,30,15,15,-15,"[5, 2, 1, 0.5]",lin,1,1,8,5,7,39,down,1,0,309.57810625000275,0,,309.58676712500164,310.08078741600184,310.08078741600184,310.1612227500009,310.1612227500009,310.1612227500009,310.79447504100244,1,,,,,,,,,,,,,,,sofia,0,2025-08-22_14h44.23.095,tilt_staircase,2023.2.3,120.25361535349536,2025-08-22 14h44.45.271470 -0400,
,,,,,,,,,,,,1,0,1,0,310.80264029099635,,,,,,,,,,,,,,,,,,,,,,,,,,,,,,,,,,,,,,,,,,,,,,,,,,,,,,,negc_poss,30,-15,15,-15,"[5, 2, 1, 0.5]",lin,1,1,8,2,7,40,down,2,8,310.79471229099727,8,30,310.80264029099635,311.29747983299603,311.29747983299603,311.37686333299644,311.37686333299644,311.37686333299644,311.8375192079984,1,,,,,,,,,,,,,,,sofia,0,2025-08-22_14h44.23.095,tilt_staircase,2023.2.3,120.25361535349536,2025-08-22 14h44.45.271470 -0400,
,,,,,,,,,,,,1,0,1,0,311.8461443330016,,,,,,,,,,,,,,,,,,,,,,,,,,,,,,,,,,,,,,,,,,,,,,,,,,,,,,,posc_poss,30,15,15,-15,"[5, 2, 1, 0.5]",lin,1,1,8,3,7,41,up,0.5,7.0,311.8377622909975,7.0,30,311.8461443330016,312.34727166599623,312.34727166599623,312.41961691599863,312.4266481250015,312.4266481250015,313.12779595799657,1,,,,,,,,,,,,,,,sofia,0,2025-08-22_14h44.23.095,tilt_staircase,2023.2.3,120.25361535349536,2025-08-22 14h44.45.271470 -0400,
,,,,,,,,,,,,1,0,1,0,313.1361021659977,,,,,,,,,,,,,,,,,,,,,,,,,,,,,,,,,,,,,,,,,,,,,,,,,,,,,,,negc_noss,30,-15,15,-15,"[5, 2, 1, 0.5]",lin,1,1,8,4,8,42,down,2,-1,313.1280214579965,-1,,313.1361021659977,313.6308413750012,313.6308413750012,313.71100354100054,313.71100354100054,313.71100354100054,314.21064216599916,0,,,,,,,,,,,,,,,sofia,0,2025-08-22_14h44.23.095,tilt_staircase,2023.2.3,120.25361535349536,2025-08-22 14h44.45.271470 -0400,
,,,,,,,,,,,,1,0,1,0,314.2192736249999,,,,,,,,,,,,,,,,,,,,,,,,,,,,,,,,,,,,,,,,,,,,,,,,,,,,,,,negc_negs,30,-15,15,-15,"[5, 2, 1, 0.5]",lin,1,1,8,0,8,43,down,0.5,-0.5,314.2108938329984,-0.5,-30,314.2192736249999,314.71463850000146,314.71463850000146,314.7945370410016,314.7945370410016,314.7945370410016,315.52123204099917,0,,,,,,,,,,,,,,,sofia,0,2025-08-22_14h44.23.095,tilt_staircase,2023.2.3,120.25361535349536,2025-08-22 14h44.45.271470 -0400,
,,,,,,,,,,,,1,0,1,0,315.52918354100257,,,,,,,,,,,,,,,,,,,,,,,,,,,,,,,,,,,,,,,,,,,,,,,,,,,,,,,negc_poss,30,-15,15,-15,"[5, 2, 1, 0.5]",lin,1,1,8,2,8,44,down,2,6,315.5214641659986,6,30,315.52918354100257,316.0299573329976,316.0299573329976,316.1028264159977,316.109765125002,316.109765125002,316.85390945799736,0,,,,,,,,,,,,,,,sofia,0,2025-08-22_14h44.23.095,tilt_staircase,2023.2.3,120.25361535349536,2025-08-22 14h44.45.271470 -0400,
,,,,,,,,,,,,1,0,1,0,316.8621205410018,,,,,,,,,,,,,,,,,,,,,,,,,,,,,,,,,,,,,,,,,,,,,,,,,,,,,,,posc_noss,30,15,15,-15,"[5, 2, 1, 0.5]",lin,1,1,8,5,8,45,down,1,-1,316.8541532500021,-1,,316.8621205410018,317.36435516599886,317.36435516599886,317.4362030409975,317.4432647909998,317.4432647909998,317.988257791003,0,,,,,,,,,,,,,,,sofia,0,2025-08-22_14h44.23.095,tilt_staircase,2023.2.3,120.25361535349536,2025-08-22 14h44.45.271470 -0400,
,,,,,,,,,,,,1,0,1,0,317.99724404099834,,,,,,,,,,,,,,,,,,,,,,,,,,,,,,,,,,,,,,,,,,,,,,,,,,,,,,,posc_negs,30,15,15,-15,"[5, 2, 1, 0.5]",lin,1,1,8,1,8,46,up,2,1,317.98853745799715,1,-30,317.99724404099834,318.49790529099846,318.49790529099846,318.56953704100306,318.57624158299586,318.57624158299586,319.15434037499654,1,,,,,,,,,,,,,,,sofia,0,2025-08-22_14h44.23.095,tilt_staircase,2023.2.3,120.25361535349536,2025-08-22 14h44.45.271470 -0400,
,,,,,,,,,,,,1,0,1,0,319.16298329099664,,,,,,,,,,,,,,,,,,,,,,,,,,,,,,,,,,,,,,,,,,,,,,,,,,,,,,,posc_poss,30,15,15,-15,"[5, 2, 1, 0.5]",lin,1,1,8,3,8,47,down,0.5,6.5,319.15458404099627,6.5,30,319.16298329099664,319.66333133300213,319.66333133300213,319.73629929099843,319.74335849999625,319.74335849999625,320.59431054099696,1,,,,,,,,,,,,,,,sofia,0,2025-08-22_14h44.23.095,tilt_staircase,2023.2.3,120.25361535349536,2025-08-22 14h44.45.271470 -0400,
,,,,,,,,,,,,1,0,1,0,320.60285933299747,,,,,,,,,,,,,,,,,,,,,,,,,,,,,,,,,,,,,,,,,,,,,,,,,,,,,,,posc_poss,30,15,15,-15,"[5, 2, 1, 0.5]",lin,1,1,8,3,9,48,down,0.5,6.0,320.5945761249968,6.0,30,320.60285933299747,321.096623874997,321.096623874997,321.17708441599825,321.17708441599825,321.17708441599825,321.85530650000146,0,,,,,,,,,,,,,,,sofia,0,2025-08-22_14h44.23.095,tilt_staircase,2023.2.3,120.25361535349536,2025-08-22 14h44.45.271470 -0400,
,,,,,,,,,,,,1,0,1,0,321.8638257909988,,,,,,,,,,,,,,,,,,,,,,,,,,,,,,,,,,,,,,,,,,,,,,,,,,,,,,,negc_poss,30,-15,15,-15,"[5, 2, 1, 0.5]",lin,1,1,8,2,9,49,up,1,7,321.8555718330026,7,30,321.8638257909988,322.36426737500005,322.36426737500005,322.4363274999996,322.443292457996,322.443292457996,322.9707824579964,0,,,,,,,,,,,,,,,sofia,0,2025-08-22_14h44.23.095,tilt_staircase,2023.2.3,120.25361535349536,2025-08-22 14h44.45.271470 -0400,
,,,,,,,,,,,,1,0,1,0,322.97953399999824,,,,,,,,,,,,,,,,,,,,,,,,,,,,,,,,,,,,,,,,,,,,,,,,,,,,,,,posc_negs,30,15,15,-15,"[5, 2, 1, 0.5]",lin,1,1,8,1,9,50,down,1,0,322.9710310829978,0,-30,322.97953399999824,323.48003008300293,323.48003008300293,323.55296895799984,323.55953229100123,323.55953229100123,324.42104924999876,1,,,,,,,,,,,,,,,sofia,0,2025-08-22_14h44.23.095,tilt_staircase,2023.2.3,120.25361535349536,2025-08-22 14h44.45.271470 -0400,
,,,,,,,,,,,,1,0,1,0,324.4293816249992,,,,,,,,,,,,,,,,,,,,,,,,,,,,,,,,,,,,,,,,,,,,,,,,,,,,,,,posc_noss,30,15,15,-15,"[5, 2, 1, 0.5]",lin,1,1,8,5,9,51,up,0.5,-0.5,324.42130941600044,-0.5,,324.4293816249992,324.93088762499974,324.93088762499974,325.0029799999975,325.00988558300014,325.00988558300014,325.6380336660004,0,,,,,,,,,,,,,,,sofia,0,2025-08-22_14h44.23.095,tilt_staircase,2023.2.3,120.25361535349536,2025-08-22 14h44.45.271470 -0400,
,,,,,,,,,,,,1,0,1,0,325.6461880830029,,,,,,,,,,,,,,,,,,,,,,,,,,,,,,,,,,,,,,,,,,,,,,,,,,,,,,,negc_negs,30,-15,15,-15,"[5, 2, 1, 0.5]",lin,1,1,8,0,9,52,up,0.5,0.0,325.63829504099704,0.0,-30,325.6461880830029,326.14839100000245,326.14839100000245,326.21961787500186,326.2261947079969,326.2261947079969,326.96129083300184,1,,,,,,,,,,,,,,,sofia,0,2025-08-22_14h44.23.095,tilt_staircase,2023.2.3,120.25361535349536,2025-08-22 14h44.45.271470 -0400,
,,,,,,,,,,,,1,0,1,0,326.9696524579995,,,,,,,,,,,,,,,,,,,,,,,,,,,,,,,,,,,,,,,,,,,,,,,,,,,,,,,negc_noss,30,-15,15,-15,"[5, 2, 1, 0.5]",lin,1,1,8,4,9,53,up,1,0,326.96154854099586,0,,326.9696524579995,327.4639578330025,327.4639578330025,327.5448784580003,327.5448784580003,327.5448784580003,328.09430941600294,0,,,,,,,,,,,,,,,sofia,0,2025-08-22_14h44.23.095,tilt_staircase,2023.2.3,120.25361535349536,2025-08-22 14h44.45.271470 -0400,
,,,,,,,,,,,,1,0,1,0,328.10236908299703,,,,,,,,,,,,,,,,,,,,,,,,,,,,,,,,,,,,,,,,,,,,,,,,,,,,,,,negc_noss,30,-15,15,-15,"[5, 2, 1, 0.5]",lin,1,1,8,4,10,54,up,1,1,328.0945412910005,1,,328.10236908299703,328.5974178329998,328.5974178329998,328.6778594159987,328.6778594159987,328.6778594159987,330.21167066600174,0,,,,,,,,,,,,,,,sofia,0,2025-08-22_14h44.23.095,tilt_staircase,2023.2.3,120.25361535349536,2025-08-22 14h44.45.271470 -0400,
,,,,,,,,,,,,1,0,1,0,330.2204371659973,,,,,,,,,,,,,,,,,,,,,,,,,,,,,,,,,,,,,,,,,,,,,,,,,,,,,,,posc_negs,30,15,15,-15,"[5, 2, 1, 0.5]",lin,1,1,8,1,10,55,down,1,-1,330.2119141250005,-1,-30,330.2204371659973,330.71441287500056,330.71441287500056,330.79407108300074,330.79407108300074,330.79407108300074,331.6050929580015,0,,,,,,,,,,,,,,,sofia,0,2025-08-22_14h44.23.095,tilt_staircase,2023.2.3,120.25361535349536,2025-08-22 14h44.45.271470 -0400,
,,,,,,,,,,,,1,0,1,0,331.6118276249981,,,,,,,,,,,,,,,,,,,,,,,,,,,,,,,,,,,,,,,,,,,,,,,,,,,,,,,posc_noss,30,15,15,-15,"[5, 2, 1, 0.5]",lin,1,1,8,5,10,56,up,0.5,0.0,331.60541674999695,0.0,,331.6118276249981,332.11370379100117,332.11370379100117,332.18641604099685,332.1934596249994,332.1934596249994,333.08710849999625,0,,,,,,,,,,,,,,,sofia,0,2025-08-22_14h44.23.095,tilt_staircase,2023.2.3,120.25361535349536,2025-08-22 14h44.45.271470 -0400,
,,,,,,,,,,,,1,0,1,0,333.09258304099785,,,,,,,,,,,,,,,,,,,,,,,,,,,,,,,,,,,,,,,,,,,,,,,,,,,,,,,posc_poss,30,15,15,-15,"[5, 2, 1, 0.5]",lin,1,1,8,3,10,57,up,0.5,6.5,333.08720883299975,6.5,30,333.09258304099785,333.5973164160023,333.5973164160023,333.6697421249992,333.67682758299634,333.67682758299634,334.74394420799945,0,,,,,,,,,,,,,,,sofia,0,2025-08-22_14h44.23.095,tilt_staircase,2023.2.3,120.25361535349536,2025-08-22 14h44.45.271470 -0400,
,,,,,,,,,,,,1,0,1,0,334.75318666599924,,,,,,,,,,,,,,,,,,,,,,,,,,,,,,,,,,,,,,,,,,,,,,,,,,,,,,,negc_poss,30,-15,15,-15,"[5, 2, 1, 0.5]",lin,1,1,8,2,10,58,up,1,8,334.7441573749966,8,30,334.75318666599924,335.24788933299715,335.24788933299715,335.3274908750027,335.3274908750027,335.3274908750027,335.9273292079961,1,,,,,,,,,,,,,,,sofia,0,2025-08-22_14h44.23.095,tilt_staircase,2023.2.3,120.25361535349536,2025-08-22 14h44.45.271470 -0400,
